Activity,AccelX1,AccelY1,AccelZ1,AccelX2,AccelY2,AccelZ2,AccelX3,AccelY3,AccelZ3,AccelX4,AccelY4,AccelZ4,AccelX5,AccelY5,AccelZ5,AccelX6,AccelY6,AccelZ6,AccelX7,AccelY7,AccelZ7,AccelX8,AccelY8,AccelZ8,AccelX9,AccelY9,AccelZ9,AccelX10,AccelY10,AccelZ10,AccelX11,AccelY11,AccelZ11,AccelX12,AccelY12,AccelZ12,AccelX13,AccelY13,AccelZ13,AccelX14,AccelY14,AccelZ14,AccelX15,AccelY15,AccelZ15,AccelX16,AccelY16,AccelZ16,AccelX17,AccelY17,AccelZ17,AccelX18,AccelY18,AccelZ18,AccelX19,AccelY19,AccelZ19,AccelX20,AccelY20,AccelZ20,AccelX21,AccelY21,AccelZ21,AccelX22,AccelY22,AccelZ22,AccelX23,AccelY23,AccelZ23,AccelX24,AccelY24,AccelZ24,AccelX25,AccelY25,AccelZ25,AccelX26,AccelY26,AccelZ26,AccelX27,AccelY27,AccelZ27,AccelX28,AccelY28,AccelZ28,AccelX29,AccelY29,AccelZ29,AccelX30,AccelY30,AccelZ30,AccelX31,AccelY31,AccelZ31,AccelX32,AccelY32,AccelZ32,AccelX33,AccelY33,AccelZ33,AccelX34,AccelY34,AccelZ34,AccelX35,AccelY35,AccelZ35,AccelX36,AccelY36,AccelZ36,AccelX37,AccelY37,AccelZ37,AccelX38,AccelY38,AccelZ38,AccelX39,AccelY39,AccelZ39,AccelX40,AccelY40,AccelZ40,AccelX41,AccelY41,AccelZ41,AccelX42,AccelY42,AccelZ42,AccelX43,AccelY43,AccelZ43,AccelX44,AccelY44,AccelZ44,AccelX45,AccelY45,AccelZ45,AccelX46,AccelY46,AccelZ46,AccelX47,AccelY47,AccelZ47,AccelX48,AccelY48,AccelZ48,AccelX49,AccelY49,AccelZ49,AccelX50,AccelY50,AccelZ50
walking,-5.92804336547852,3.22259545326233,8.75320148468018,-5.06613063812256,2.14999318122864,7.12514448165894,-3.74931979179382,0.521935999393463,6.26323175430298,-6.2584433555603,-0.790086567401886,7.36456441879272,-1.99676418304443,1.57059633731842,12.7994022369385,-4.06056594848633,3.72058939933777,6.28717374801636,2.61925673484802,-0.244208574295044,11.1090955734253,2.01591777801514,1.55623114109039,4.36223554611206,1.77649760246277,0.196324542164803,3.2082302570343,4.53940629959106,-3.19865345954895,7.01022243499756,4.94163227081299,-8.27436065673828,1.17315888404846,9.47625064849854,-11.4921684265137,1.12527477741241,12.3061971664429,-10.2854900360107,4.8410758972168,6.74207210540771,-7.24006605148315,-1.18273568153381,4.34787034988403,-9.64863300323486,1.36948335170746,1.73340201377869,-15.4761199951172,10.074800491333,6.13394498825073,-8.83939266204834,-2.00155258178711,6.87614727020264,-8.50899314880371,-1.78607451915741,7.15866327285767,-8.26957225799561,-3.7349545955658,9.65342140197754,-9.65342140197754,-4.11323833465576,9.03571701049805,-15.0691051483154,-6.07648372650146,8.99740982055664,-15.9501714706421,-7.13950967788696,1.25935006141663,-11.4394960403442,-4.47715711593628,0.407014280557632,-7.04374122619629,-1.91536140441895,-0.430956304073334,-6.96712684631348,-0.804451763629913,3.13161587715149,-10.979808807373,-1.33117616176605,12.5504055023193,-13.8624277114868,-1.2449848651886,8.44674396514893,-10.7356004714966,0.272938996553421,10.2759132385254,-8.14507389068604,-2.28885674476624,3.87860679626465,-14.1210012435913,-3.23217225074768,0.857124209403992,-8.5712423324585,-0.814028561115265,-0.129286885261536,-10.1322612762451,-0.861912608146667,4.65432786941528,-11.1809215545654,-1.76213240623474,7.96790313720703,-15.6772327423096,-1.84832370281219,12.4450607299805,-12.9957265853882,0.59855043888092,13.2734546661377,-7.6375036239624,-2.3511061668396,11.7315883636475,-8.38449478149414,0.301669418811798,7.65186882019043,-16.3093013763428,-0.483628749847412,5.93283176422119,-14.6237840652466,-1.83395850658417,3.07415509223938,-11.113883972168,-1.82917010784149,-0.440533101558685,-9.30865573883057,-0.924161851406097,0.976834297180176,-9.58638381958008,-1.11090958118439,4.38617753982544,-13.4937210083008,-3.72058939933777,9.12190818786621,-16.3907051086426,-1.10612118244171,11.8082027435303,-11.6837043762207,-1.72382521629333,13.2973966598511,-8.6095495223999,-1.95845699310303,9.86411094665527,-10.1418380737305,-0.871489405632019,6.09563732147217,-14.2981729507446,0.924161851406097,4.97036266326904,-12.6940574645996,-0.780509769916534,3.31836366653442,-14.1736736297607,-1.14442837238312
walking,-2.41814374923706,-9.84016895294189,2.31279873847961,4.64953947067261,-11.9135475158691,-2.29364514350891,4.16112232208252,-10.8409452438354,-2.02070617675781,6.59363126754761,-14.839262008667,-0.593762040138245,15.8687686920166,-9.98382091522217,-2.82036972045898,9.51455783843994,-8.96389102935791,-1.54665434360504,8.35576438903809,-10.8696756362915,0.421379506587982,6.2392897605896,-13.4793558120728,-0.148440510034561,5.68383502960205,-12.4977331161499,-0.0335188247263432,-3.28005623817444,-9.63426780700684,-1.66157603263855,-0.881066203117371,-11.3820352554321,2.80600428581238,1.93930339813232,-12.3253507614136,-3.51947641372681,5.832275390625,-13.6373729705811,-1.78128612041473,11.295844078064,-9.12190818786621,-3.29442143440247,6.18661737442017,-12.6270198822021,-0.0861912593245506,5.15711069107056,-10.3764705657959,4.77882671356201,-2.02549457550049,-9.85453414916992,5.57848978042603,6.16267538070679,-11.4969568252563,-1.82438170909882,11.0085391998291,-12.3445043563843,-1.98239898681641,13.4027414321899,-7.58483076095581,2.9161376953125,13.1202249526978,-6.36378812789917,-5.09964942932129,4.46279191970825,-13.1250133514404,0.411802679300308,5.73650741577148,-11.841721534729,-0.756567716598511,3.6343982219696,-11.1330375671387,-0.612915635108948,-1.48440504074097,-11.4921684265137,-0.0670376494526863,3.82114601135254,-11.4155540466309,-1.02950668334961,7.43639039993286,-9.29907894134521,-1.03908348083496,7.83382797241211,-10.5536413192749,-0.90979665517807,12.9574193954468,-9.24640655517578,-0.991199493408203,13.5176630020142,-7.29273843765259,-1.23540806770325,7.47948598861694,-11.7028579711914,0.100556470453739,7.20175886154175,-12.7658834457397,0.957680702209473,1.62326872348785,-10.7451772689819,-0.799663364887238,0.550666391849518,-9.69172859191895,0.469263523817062,1.6903064250946,-10.3381633758545,2.41814374923706,5.58806657791138,-11.5304756164551,-4.22816038131714,6.92403125762939,-12.7610950469971,-0.339976638555527,13.800178527832,-10.7547540664673,-2.00155258178711,12.2822551727295,-9.12190818786621,-1.92014980316162,8.97825622558594,-7.71411800384521,0.905008256435394,8.95431423187256,-12.1529674530029,-1.08696758747101,4.93684387207031,-12.4881563186646,-1.2258312702179,-0.766144514083862,-10.1657800674438,-2.84431171417236,-0.363918662071228,-10.5392761230469,-1.31681096553802,2.50433492660522,-11.0037508010864,-2.61925673484802,5.47793340682983,-9.4044246673584,-1.76692080497742,7.66144561767578,-12.1864862442017,-2.07337856292725,15.030797958374,-8.39885997772217,1.47482824325562,10.9223480224609,-6.52180528640747,-3.43807363510132,4.95120906829834,-10.979808807373,-3.03105926513672
walking,1.25935006141663,-13.4649906158447,-2.90177249908447,5.49708700180054,-9.720458984375,-2.13562798500061,7.18260526657104,-11.9710083007813,-0.952892303466797,6.58405447006226,-5.57848978042603,-5.06613063812256,9.36132907867432,-7.62313842773437,-7.20654726028442,0.656011283397675,-5.68862342834473,-0.0478840321302414,3.6152446269989,-10.1466264724731,-1.21146607398987,17.9373588562012,-14.7865896224976,-0.416591107845306,11.8512983322144,-6.06690692901611,-1.01035308837891,9.03571701049805,-13.5272397994995,-1.94888019561768,3.74931979179382,-10.2328176498413,-1.01514148712158,2.73417830467224,-9.92157173156738,-2.3511061668396,3.92649078369141,-13.9965028762817,-3.88818359375,8.86333465576172,-10.0652236938477,-2.8969841003418,12.7515182495117,-6.72291851043701,-1.72861361503601,7.59919595718384,-11.8752403259277,-0.593762040138245,0.407014280557632,-9.63426780700684,-2.34631776809692,4.17069959640503,-9.50498104095459,-3.3423056602478,9.92157173156738,-11.1904983520508,-1.13963997364044,11.6118783950806,-7.00543403625488,-0.814028561115265,6.59841966629028,-10.5153341293335,-0.0861912593245506,0.627280831336975,-9.93114852905273,-1.43652105331421,3.12682747840881,-9.10275459289551,-3.62003302574158,10.1945104598999,-10.611102104187,-1.48919343948364,12.6030778884888,-5.63595056533813,-1.36948335170746,6.48349809646606,-9.93593692779541,-1.47961664199829,1.13963997364044,-9.62469100952148,-1.47003984451294,7.86734676361084,-9.28471374511719,-3.76847338676453,8.82502746582031,-9.35175228118896,-2.23139595985413,12.5312519073486,-5.14753341674805,-2.34631776809692,7.09162521362305,-9.55286502838135,-0.201112940907478,1.87226569652557,-9.2224645614624,-2.2170307636261,2.84910011291504,-9.71088218688965,-4.78840351104736,12.2008514404297,-10.6541976928711,0.244208574295044,13.8480625152588,-8.19295787811279,0.919373452663422,6.30153894424438,-10.3573169708252,-1.05823719501495,-0.565031588077545,-9.5815954208374,0.143652096390724,2.38462495803833,-10.7356004714966,-0.316034615039825,11.338939666748,-12.8089790344238,-0.651222884654999,10.7978496551514,-7.81946277618408,-2.82036972045898,5.82748699188232,-13.072340965271,0.325611442327499,-5.46835660934448,-10.8074264526367,0.325611442327499,3.26569104194641,-15.7059631347656,0.138863697648048,7.68059921264648,-11.4299192428589,-0.445321530103683,11.4155540466309,-10.5488529205322,-0.72304892539978,3.73016619682312,-13.8480625152588,-0.670376479625702,-2.02549457550049,-8.30309104919434,1.20188927650452,3.71580100059509,-12.8185558319092,-0.66079968214035,9.61511421203613,-12.7754602432251,-1.61848032474518,12.6557502746582,-8.92079544067383,-3.98873996734619
walking,4.2951979637146,-13.9534072875977,-3.19386506080627,-0.526724398136139,-8.25520706176758,-1.70467162132263,1.16837048530579,-10.936713218689,-0.445321530103683,12.1433906555176,-12.8903818130493,-0.306457817554474,10.5584297180176,-8.49462795257568,0.12449848651886,7.40287160873413,-15.4042940139771,-4.10366153717041,-0.129286885261536,-7.54173517227173,-4.26167917251587,1.33117616176605,-9.59596061706543,2.93050289154053,8.8872766494751,-11.5113220214844,-2.42293214797974,9.25598335266113,-9.16979217529297,-0.943315446376801,8.4515323638916,-11.3580932617187,-4.6830587387085,1.98718738555908,-9.33738708496094,-3.89297199249268,1.90578460693359,-11.5975131988525,-2.7629086971283,5.05176544189453,-14.2885961532593,-6.59363126754761,8.78672027587891,-10.596736907959,1.44130945205688,12.8903818130493,-6.98628044128418,-0.167594119906425,4.58729028701782,-16.5630874633789,-2.43729734420776,-0.746990919113159,-9.15063858032227,-2.51870012283325,1.20188927650452,-10.8984060287476,1.9632453918457,9.11233139038086,-17.1329078674316,-2.29843354225159,10.0364933013916,-8.40364837646484,-1.48919343948364,9.79707336425781,-16.2518405914307,-1.17315888404846,3.00711727142334,-11.2288055419922,-1.45567464828491,-2.04464817047119,-10.4004125595093,-1.13485157489777,11.7698955535889,-15.2750072479248,-3.59130263328552,10.596736907959,-8.27436065673828,-1.12048637866974,10.4099893569946,-13.417106628418,0.263362199068069,6.95755004882812,-15.7490587234497,0.995987892150879,2.10210919380188,-7.13472127914429,-2.14041638374329,4.09408473968506,-8.02536392211914,-1.85311210155487,20.1400241851807,-18.1863555908203,10.9702320098877,6.60320806503296,-12.7371530532837,-2.33674097061157,4.3143515586853,-7.51779317855835,2.49475812911987,5.76523780822754,-2.23139595985413,11.8369331359863,2.34631776809692,0.167594119906425,3.99831676483154,2.06859016418457,2.63841032981873,9.85453414916992,0.699106872081757,0.814028561115265,8.68137550354004,2.4899697303772,1.88184249401093,8.79150867462158,0.727837324142456,2.41814374923706,8.98304462432861,1.52271223068237,0.584185242652893,8.88248825073242,1.32638776302338,1.5753847360611,10.5775833129883,-0.31124621629715,-0.014365210197866,8.54730033874512,2.44208574295044,0.699106872081757,8.74362468719482,3.06457805633545,0.828393816947937,8.17380428314209,2.74375510215759,-1.00556468963623,8.62391471862793,2.6240451335907,0.914585053920746,11.6023015975952,1.5179238319397,-0.0526724383234978,7.82903957366943,2.3319525718689,1.05344879627228,7.24006605148315,2.47081613540649,-1.27371525764465,3.66791701316833,8.17859268188477,-14.0683288574219,1.15879356861115
walking,16.1369190216064,-11.4778032302856,-0.239420175552368,9.60553741455078,-7.39329481124878,1.45567464828491,6.47392129898071,-11.2527475357056,-0.555454790592194,-1.09175598621368,-10.6685628890991,-2.57137250900269,3.75889658927917,-8.05888271331787,0.105344876646996,10.3956241607666,-12.2247934341431,0.0191536135971546,9.20809936523438,-9.19852256774902,0.861912608146667,5.80833339691162,-10.5249109268188,-2.04464817047119,0.995987892150879,-8.66701030731201,-1.48440504074097,4.73094272613525,-10.9558668136597,-0.593762040138245,6.32548093795776,-10.8696756362915,5.36780023574829,10.9941740036011,-5.2672438621521,-1.23061966896057,5.96635055541992,-9.0452938079834,-5.01345825195312,1.12048637866974,-8.32224464416504,1.24977326393127,2.45645093917847,-8.94952583312988,0.876277804374695,6.27280855178833,-13.3213386535645,0.612915635108948,5.82748699188232,-11.1569795608521,0.814028561115265,9.46188545227051,-5.87058258056641,-0.335188239812851,6.12436771392822,-11.9614315032959,-3.6152446269989,0.967257499694824,-8.59518432617188,-2.26491475105286,2.22181916236877,-8.44674396514893,0.545877993106842,7.18260526657104,-11.2048635482788,0.790086567401886,12.8855934143066,-8.33182144165039,-0.928950250148773,6.29196214675903,-12.181697845459,0.0335188247263432,5.31033945083618,-11.6693391799927,-0.0957680642604828,-0.545877993106842,-8.93037223815918,-0.0957680642604828,5.24330186843872,-10.2998561859131,-2.3511061668396,13.072340965271,-9.61990261077881,-1.2258312702179,8.14986228942871,-8.4132251739502,-0.569819986820221,6.37336492538452,-11.9853734970093,0.344765037298203,-3.96958637237549,-6.94797325134277,-0.114921681582928,4.82671070098877,-8.92079544067383,-1.52271223068237,14.7770128250122,-9.25119495391846,1.15400516986847,7.48427438735962,-8.52814674377441,0.770932972431183,6.36857652664185,-10.237606048584,0.593762040138245,-3.39497804641724,-9.17936897277832,-0.679953277111053,6.26802015304565,-9.31344413757324,0.16280572116375,13.4506254196167,-8.79150867462158,-0.833182215690613,10.2471828460693,-9.48103904724121,2.26012635231018,4.93684387207031,-10.4578733444214,-0.986411094665527,-1.84832370281219,-11.3724584579468,-0.694318473339081,7.48427438735962,-10.9702320098877,-1.37427175045013,11.295844078064,-9.15063858032227,-0.354341864585876,11.2527475357056,-9.92157173156738,-0.464475125074387,4.92247867584229,-11.6310319900513,0.0239420160651207,-0.253785371780396,-11.7986259460449,-3.07415509223938,6.17704057693481,-11.7890491485596,-0.268150597810745,11.4778032302856,-10.2759132385254,-0.665588080883026,11.5113220214844,-8.62391471862793,0.900219857692719,6.75164890289307,-13.6325845718384,0.383072257041931
walking,-0.746990919113159,-8.36055278778076,0.823605358600616,4.54419469833374,-11.0468463897705,-1.14442837238312,9.44752025604248,-12.5168867111206,-0.689530074596405,14.3029613494873,-7.13950967788696,-4.65911674499512,7.0820484161377,-12.0811414718628,0.541089594364166,-0.627280831336975,-10.802638053894,-1.06302559375763,2.10689759254456,-10.4770269393921,-0.469263523817062,8.85375785827637,-12.3061971664429,0.244208574295044,11.0659999847412,-8.29830265045166,-1.27371525764465,8.25999546051025,-14.6046304702759,0.0335188247263432,0.943315446376801,-9.33259868621826,-2.22181916236877,1.35032975673676,-7.66144561767578,-1.06302559375763,8.6095495223999,-11.5352640151978,-1.46525144577026,9.52413463592529,-10.1274728775024,-0.110133275389671,9.80665016174316,-8.03972911834717,-2.28885674476624,6.52180528640747,-14.0491752624512,-3.4811692237854,-0.53630119562149,-7.42202520370483,-2.18351197242737,3.79720377922058,-13.2064161300659,0.675164878368378,6.71813011169434,-14.6142072677612,2.35589456558228,9.01177501678467,-9.09317779541016,-1.05823719501495,8.5712423324585,-12.6701154708862,-3.60087943077087,3.25611424446106,-11.7076463699341,-3.16034626960754,-1.87226569652557,-7.20175886154175,-2.05901336669922,7.09641361236572,-15.4282360076904,-2.11168599128723,8.14028549194336,-13.5128746032715,0.924161851406097,12.378023147583,-7.39329481124878,2.6623523235321,10.251971244812,-17.329231262207,-3.76368498802185,1.16837048530579,-8.98783302307129,-1.45567464828491,0.780509769916534,-10.4435081481934,-2.15478157997131,6.50265169143677,-15.2606420516968,-1.59932672977448,10.0317049026489,-10.0077629089355,-0.780509769916534,10.5727949142456,-10.8553104400635,0.368707060813904,6.61278486251831,-15.6389255523682,-0.737414121627808,1.29765737056732,-8.85375785827637,-2.42772054672241,3.40455484390259,-11.3676700592041,-2.81079268455505,20.6380195617676,-13.4649906158447,-0.627280831336975,15.5718879699707,-7.35498762130737,2.39899015426636,6.43082571029663,-15.1361427307129,0.612915635108948,0.402225881814957,-11.2144403457642,0.0957680642604828,2.06380176544189,-11.5831480026245,-1.19710087776184,8.39885997772217,-14.3460569381714,-1.93451499938965,14.0348100662231,-9.12190818786621,-1.23061966896057,6.19140577316284,-13.239935874939,1.20188927650452,-0.234631761908531,-12.1098718643188,0.588973641395569,1.94888019561768,-11.4299192428589,-0.555454790592194,9.27513694763184,-12.4929447174072,-0.545877993106842,11.6214551925659,-10.2471828460693,-1.92014980316162,5.58806657791138,-11.7267999649048,-0.0957680642604828,1.95366859436035,-11.1186723709106,0.521935999393463,2.73896670341492,-8.73404788970947,1.10133278369904
walking,8.7292594909668,-11.3437280654907,0.37349545955658,12.732364654541,-8.50899314880371,-3.32794046401978,5.61200857162476,-11.1904983520508,1.17794728279114,4.8793830871582,-11.9279127120972,-0.794874966144562,0.593762040138245,-10.0652236938477,1.78128612041473,7.55610036849976,-11.0707883834839,-0.72304892539978,13.4697790145874,-9.543288230896,-2.77248549461365,4.6830587387085,-10.5727949142456,1.5753847360611,3.50511121749878,-11.7555303573608,-0.790086567401886,1.2258312702179,-9.57201862335205,1.944091796875,6.08606052398682,-11.7363767623901,-0.761356115341187,14.5328044891357,-9.07881259918213,-2.26012635231018,6.14352178573608,-10.611102104187,1.14442837238312,4.22337198257446,-11.1569795608521,-1.44609785079956,-1.16358196735382,-10.1849336624146,0.344765037298203,7.41244840621948,-9.93593692779541,0.239420175552368,11.113883972168,-8.94473743438721,0.090979665517807,6.5553240776062,-10.3573169708252,-0.665588080883026,6.11479091644287,-10.9941740036011,-7.69017601013184,2.23139595985413,-8.37012958526611,-3.16513466835022,4.71657752990723,-12.8520746231079,0.780509769916534,2.86825370788574,-16.2901477813721,-0.469263523817062,10.788272857666,-9.48582744598389,2.54264211654663,9.90720653533936,-3.68228220939636,0.234631761908531,7.7955207824707,-11.2814788818359,-5.08528423309326,2.71981310844421,-7.17302846908569,-1.35511815547943,3.54341840744019,-11.2431707382202,0.742202520370483,11.0085391998291,-13.3069734573364,1.06302559375763,13.3452806472778,-8.14028549194336,2.07337856292725,7.97747993469238,-15.9597482681274,-1.06302559375763,2.84431171417236,-11.4011888504028,-1.57059633731842,0.746990919113159,-8.27436065673828,0.478840351104736,7.42202520370483,-11.8656635284424,0.22505496442318,15.5862531661987,-7.76679039001465,-0.502782344818115,9.74918937683105,-11.4107656478882,3.56736063957214,5.21935987472534,-10.5344877243042,1.77170920372009,5.34385824203491,-4.60644388198853,7.04852962493896,3.96479797363281,1.18752408027649,7.44596719741821,0.593762040138245,2.95444488525391,9.57201862335205,2.83952331542969,1.69509482383728,8.20732307434082,1.62326872348785,3.11725068092346,7.94396114349365,1.84353530406952,2.13562798500061,8.58560752868652,3.40934324264526,0.761356115341187,12.6365966796875,4.55377149581909,3.2082302570343,10.1322612762451,4.82192230224609,-0.301669418811798,7.39329481124878,4.85544109344482,1.40300214290619,8.50420475006104,2.11168599128723,2.24097275733948,11.7076463699341,1.82438170909882,2.47081613540649,5.90410137176514,3.13161587715149,5.51624059677124,11.0995187759399,3.48595762252808,1.90578460693359,8.69095230102539
walking,3.76847338676453,-4.18506479263306,-0.871489405632019,9.42836666107178,-15.9597482681274,1.75734400749207,6.48828649520874,-10.251971244812,-2.69108271598816,12.3061971664429,-6.83305168151855,-1.85311210155487,7.91044235229492,-17.3627510070801,0.402225881814957,3.32794046401978,-9.39484786987305,0.0574608407914639,2.21224236488342,-9.47146224975586,-1.23061966896057,7.67581081390381,-13.5990657806396,-0.0287304203957319,12.2247934341431,-9.37090587615967,-1.73340201377869,8.77235507965088,-11.4394960403442,1.07260239124298,4.39096593856812,-13.5032978057861,0.0,-0.90979665517807,-10.0556468963623,-2.05422496795654,4.92726707458496,-11.827356338501,-0.670376479625702,11.2431707382202,-10.9127712249756,-2.33674097061157,12.210428237915,-7.43639039993286,-2.06380176544189,5.38695383071899,-13.5368165969849,-0.277727395296097,-1.43652105331421,-9.7013053894043,-1.2641384601593,3.10767388343811,-13.2064161300659,-2.88740730285645,7.97269153594971,-10.3716821670532,-1.29286897182465,12.1721210479736,-7.953537940979,0.335188239812851,6.17704057693481,-14.0539636611938,-2.61925673484802,0.354341864585876,-8.37012958526611,-2.61925673484802,1.07739078998566,-12.0284690856934,1.40779054164886,5.48272180557251,-11.4394960403442,1.26892685890198,11.3628816604614,-9.29907894134521,4.71657752990723,9.75876617431641,-9.26077175140381,-2.2170307636261,3.90254878997803,-11.5639944076538,-3.62482142448425,1.20188927650452,-6.80910968780518,4.37181234359741,6.08606052398682,-12.9047470092773,-0.292092621326447,9.64863300323486,-11.5065336227417,1.24019646644592,11.3293628692627,-7.74284839630127,1.84353530406952,11.338939666748,-15.5575227737427,-4.65911674499512,3.45243883132935,-9.58638381958008,-1.77170920372009,1.20188927650452,-10.1418380737305,-2.30801033973694,8.61433792114258,-13.0196685791016,-0.84754741191864,11.9949502944946,-10.5009689331055,-0.301669418811798,9.81143856048584,-8.33182144165039,0.766144514083862,5.87058258056641,-13.4123182296753,-0.306457817554474,0.464475125074387,-8.78193187713623,-1.49398183822632,5.832275390625,-12.5791358947754,-0.770932972431183,11.1761331558228,-12.5982894897461,-1.67594122886658,12.2152166366577,-6.79474449157715,-2.68150591850281,7.38371801376343,-15.2750072479248,1.52750062942505,-1.20667767524719,-10.3381633758545,-1.74776721000671,3.21301865577698,-11.6549739837646,-2.07816696166992,10.7643308639526,-12.9669961929321,-1.944091796875,13.6661033630371,-8.55208873748779,-1.10612118244171,7.46033239364624,-13.3787994384766,0.837970614433289,0.541089594364166,-11.5544176101685,0.0287304203957319,2.53306531906128,-10.3621053695679,-0.0814028605818748
walking,9.99339771270752,-13.9055233001709,-0.732625722885132,9.4427318572998,-7.67581081390381,-4.69263553619385,6.97191524505615,-11.5065336227417,0.890643060207367,4.48673391342163,-12.6988458633423,0.105344876646996,1.24977326393127,-11.6262435913086,-1.5945383310318,9.43315505981445,-13.7283525466919,-1.39342534542084,12.5025215148926,-7.79073238372803,-1.03429508209229,7.22091245651245,-12.4833679199219,0.833182215690613,1.85311210155487,-11.295844078064,-0.181959331035614,1.44609785079956,-10.433931350708,-1.21146607398987,8.5903959274292,-12.3014087677002,0.646434485912323,14.3269033432007,-9.34217548370361,-0.526724398136139,7.7763671875,-11.650185585022,2.01112937927246,3.07894349098206,-11.6070899963379,0.885854601860046,2.13562798500061,-9.63905620574951,1.65678763389587,5.11401462554932,-10.8600988388062,-0.790086567401886,13.3404922485352,-7.96311473846436,-5.16189908981323,5.55933618545532,-11.827356338501,0.967257499694824,8.40843677520752,-14.2167692184448,0.699106872081757,-4.51067590713501,-8.69095230102539,0.234631761908531,4.83149909973145,-11.6837043762207,-0.177170932292938,12.1146602630615,-10.0700120925903,0.727837324142456,8.12592029571533,-9.72524738311768,-1.16837048530579,1.97761058807373,-12.8424978256226,-3.28484463691711,1.10612118244171,-10.8505220413208,-2.06859016418457,4.53940629959106,-14.2024040222168,0.742202520370483,10.2998561859131,-13.3883762359619,5.31033945083618,7.24006605148315,-7.71411800384521,0.574608385562897,12.746729850769,-8.32703304290771,-3.93127918243408,7.98226833343506,-10.2280292510986,-1.13006317615509,2.04464817047119,-7.53694677352905,-1.14442837238312,1.66157603263855,-10.3477401733398,0.454898327589035,10.9558668136597,-12.2583122253418,-0.229843363165855,14.9062995910645,-7.49863958358765,0.579396784305573,7.7763671875,-15.4473896026611,0.636857628822327,1.87705409526825,-11.4299192428589,-2.05901336669922,-0.665588080883026,-10.2807016372681,0.900219857692719,8.87291145324707,-12.5456171035767,-0.636857628822327,15.3851404190063,-8.4706859588623,1.21146607398987,8.28872585296631,-11.4347076416016,1.16358196735382,5.12359142303467,-13.254301071167,1.18752408027649,1.60411512851715,-8.83939266204834,-1.24977326393127,5.71735382080078,-12.0141038894653,0.766144514083862,14.6046304702759,-10.7356004714966,0.718260526657104,9.16021537780762,-9.50976943969727,0.18674772977829,7.05810642242432,-11.8034143447876,-1.05344879627228,-4.30956315994263,-10.965443611145,-1.80522811412811,1.66157603263855,-12.8712282180786,-1.85311210155487,9.35175228118896,-14.2119808197021,-0.16280572116375,10.4099893569946,-13.283031463623,-1.54665434360504
walking,10.6206789016724,-7.57525396347046,-4.23294878005981,10.4387197494507,-10.4818153381348,-0.268150597810745,6.2584433555603,-15.0643167495728,0.565031588077545,3.17471146583557,-12.167332649231,-2.15956997871399,-1.90099620819092,-10.1322612762451,-2.14520478248596,-3.36145925521851,-10.9031944274902,-0.617704033851624,4.24731397628784,-11.8800287246704,-2.01112937927246,7.50342798233032,-12.1529674530029,-0.469263523817062,10.2184524536133,-11.4969568252563,-1.13006317615509,12.9430541992188,-8.61912631988525,-2.02070617675781,13.0771293640137,-6.10042572021484,0.0191536135971546,7.90086555480957,-12.4067535400391,0.31124621629715,6.59363126754761,-12.378023147583,0.392649084329605,1.66636443138123,-10.8457336425781,-1.04387199878693,2.94486808776855,-11.5592060089111,-1.29765737056732,2.18351197242737,-9.46188545227051,0.852335810661316,4.97515106201172,-11.1521911621094,-1.46046304702759,9.36132907867432,-13.6900453567505,2.09253239631653,12.4785795211792,-11.0420579910278,-0.253785371780396,12.4067535400391,-7.99663352966309,0.656011283397675,9.66299819946289,-9.39963626861572,2.10689759254456,6.56968927383423,-12.0619878768921,1.19231247901917,5.6934118270874,-11.678915977478,1.5945383310318,-0.00957680679857731,-10.4674501419067,-0.24899697303772,-1.56101953983307,-8.73404788970947,0.833182215690613,3.62960982322693,-11.2719011306763,-1.76213240623474,8.8872766494751,-11.5783596038818,-1.31681096553802,10.5727949142456,-11.2527475357056,-0.603338837623596,16.3859157562256,-8.53772354125977,-1.91057300567627,5.66468143463135,-11.2431707382202,0.191536128520966,0.0335188247263432,-10.1992988586426,-1.49877023696899,5.37737703323364,-10.2567596435547,-0.469263523817062,8.78672027587891,-11.2671127319336,0.699106872081757,12.6844806671143,-7.41723680496216,-1.21146607398987,7.94874954223633,-12.2391586303711,-2.00155258178711,0.900219857692719,-9.43315505981445,-1.92972660064697,0.569819986820221,-11.2910556793213,-0.335188239812851,10.2807016372681,-13.623007774353,1.10612118244171,11.0947303771973,-8.52814674377441,-0.416591107845306,9.79228496551514,-14.0443868637085,-5.49708700180054,1.88184249401093,-8.41801357269287,-3.02627086639404,1.56580793857574,-9.897629737854,2.64798712730408,8.34139919281006,-14.6142072677612,0.823605358600616,10.3525285720825,-10.1609916687012,-2.53785371780396,8.53772354125977,-11.8656635284424,-2.15956997871399,5.43483781814575,-14.1018476486206,-3.39018964767456,1.85790050029755,-8.61912631988525,-0.679953277111053,3.30878663063049,-12.9430541992188,0.0430956296622753,13.948618888855,-15.3707752227783,2.47560453414917,12.1194486618042,-5.22893667221069,-0.775721371173859
walking,8.95910263061523,-18.4832363128662,-2.61925673484802,1.58496153354645,-8.54251194000244,-1.15400516986847,3.82114601135254,-8.61433792114258,2.03985977172852,8.31266784667969,-14.4178829193115,-0.59855043888092,12.3157739639282,-8.37012958526611,-2.04464817047119,6.43561410903931,-12.9574193954468,-0.0287304203957319,2.33674097061157,-12.349292755127,-2.21224236488342,-0.402225881814957,-9.0644474029541,-1.58496153354645,5.04697704315186,-12.6557502746582,-0.387860685586929,15.9358062744141,-8.40364837646484,-0.746990919113159,7.34541082382202,-12.9909381866455,2.14520478248596,4.15154552459717,-11.2766895294189,0.512359142303467,1.41736745834351,-8.04930591583252,-2.13083958625793,7.18260526657104,-10.6446208953857,-1.63763391971588,14.676456451416,-8.67658710479736,-0.469263523817062,8.30787944793701,-8.79150867462158,0.411802679300308,7.99663352966309,-11.9087591171265,-1.00077629089355,-2.28885674476624,-10.3237981796265,-0.229843363165855,4.95120906829834,-11.6884927749634,-0.320823013782501,13.0100917816162,-10.1945104598999,-0.301669418811798,11.2623243331909,-8.83939266204834,0.210689753293991,6.15788698196411,-12.1577558517456,2.22181916236877,6.84262847900391,-7.68538761138916,3.55299520492554,3.08852028846741,-0.172382518649101,7.73805999755859,-0.378283858299255,1.55623114109039,9.15063858032227,0.205901339650154,-0.181959331035614,9.42836666107178,1.37427175045013,0.392649084329605,8.5903959274292,2.14041638374329,0.454898327589035,4.97036266326904,1.5753847360611,0.114921681582928,16.7067394256592,3.8690299987793,1.87705409526825,9.39963626861572,5.41568422317505,0.713472127914429,6.90008926391602,4.19464159011841,-1.38863694667816,2.38941335678101,8.95910263061523,-10.6781396865845,2.94965648651123,10.8553104400635,-10.9893856048584,-2.01591777801514,12.9143238067627,-6.36857652664185,-1.03908348083496,7.09162521362305,-13.2926082611084,-0.301669418811798,1.83874690532684,-10.8361568450928,-1.30723416805267,0.244208574295044,-8.03972911834717,0.981622695922852,8.41801357269287,-10.6398324966431,0.402225881814957,11.2096519470215,-9.12190818786621,1.0486603975296,7.80509757995605,-10.089165687561,-1.21146607398987,2.95444488525391,-12.018892288208,-3.13640427589417,-1.86268889904022,-11.5639944076538,-4.09887313842773,6.61278486251831,-12.7946138381958,1.20188927650452,7.65186882019043,-12.018892288208,4.33350515365601,11.0947303771973,-4.73094272613525,-0.229843363165855,17.4824600219727,-9.42836666107178,-4.40533113479614,5.89452457427979,-7.76679039001465,-1.87226569652557,0.18674772977829,-6.77559089660645,-0.584185242652893,9.37090587615967,-14.0012912750244,-1.31202256679535
walking,9.08838939666748,-13.5655469894409,0.258573770523071,12.1625442504883,-8.02536392211914,0.114921681582928,7.30231523513794,-16.9844665527344,0.684741675853729,0.378283858299255,-11.7698955535889,-1.6903064250946,-0.699106872081757,-8.37970638275146,-0.670376479625702,6.62236213684082,-11.8704519271851,-1.15879356861115,11.1857099533081,-8.4323787689209,0.43574470281601,10.0125513076782,-7.77157878875732,0.718260526657104,6.14352178573608,-12.9191122055054,0.603338837623596,-3.38061285018921,-7.7955207824707,1.39342534542084,3.58172583580017,-9.63905620574951,0.320823013782501,17.2621936798096,-9.98860931396484,1.18273568153381,10.3237981796265,-8.33661079406738,2.74854350090027,5.17626428604126,-11.7220115661621,0.866701006889343,-2.2553379535675,-10.1131076812744,-0.531512796878815,4.53461790084839,-10.6015253067017,-0.119710087776184,14.0348100662231,-10.7691192626953,0.780509769916534,10.0987424850464,-8.69095230102539,0.569819986820221,6.49786329269409,-12.3828115463257,0.718260526657104,-1.75734400749207,-11.2671127319336,-3.21780705451965,6.52180528640747,-11.0564231872559,-1.02950668334961,13.2303581237793,-10.3956241607666,1.2258312702179,11.128249168396,-7.25443124771118,0.737414121627808,6.23450136184692,-13.2782430648804,0.861912608146667,0.651222884654999,-10.6733512878418,-1.84353530406952,4.29040956497192,-9.94551372528076,-0.670376479625702,10.6829280853271,-12.392388343811,0.675164878368378,10.7020816802979,-7.58483076095581,-0.363918662071228,7.29752683639526,-11.7363767623901,-0.37349545955658,1.93451499938965,-9.184157371521,-1.87226569652557,4.17069959640503,-10.5584297180176,0.0861912593245506,11.4107656478882,-11.3868236541748,0.675164878368378,13.5607585906982,-5.39653062820435,-0.0191536135971546,7.28795003890991,-11.6310319900513,-0.258573770523071,0.268150597810745,-9.52892303466797,-3.17949986457825,4.73573112487793,-11.2527475357056,-0.670376479625702,10.5727949142456,-10.5009689331055,-0.253785371780396,13.7906017303467,-7.5273699760437,1.78128612041473,8.96867942810059,-13.8241205215454,-2.71502470970154,0.90979665517807,-9.89284133911133,-1.5945383310318,0.924161851406097,-12.540828704834,3.85945320129395,9.19373416900635,-12.3061971664429,-0.488417148590088,11.487380027771,-8.93994903564453,-0.301669418811798,9.34217548370361,-12.2822551727295,-3.98395156860352,1.06781399250031,-10.0221281051636,-2.04464817047119,-0.770932972431183,-10.8840408325195,-1.11090958118439,6.31590414047241,-15.2941608428955,-1.19231247901917,10.7786960601807,-10.5201225280762,2.26012635231018,12.3732347488403,-6.03338813781738,-1.43652105331421,5.9902925491333,-17.1376953125,-3.23217225074768
walking,1.00077629089355,-8.4515323638916,-1.39821374416351,0.0478840321302414,-13.8767929077148,2.30801033973694,6.68461132049561,-14.2550773620605,1.13006317615509,10.2280292510986,-9.84016895294189,2.26012635231018,8.28393745422363,-14.0252332687378,-1.27850365638733,1.19710087776184,-12.7850370407104,-1.62326872348785,0.148440510034561,-10.1370496749878,-1.60411512851715,5.92325496673584,-14.5806884765625,-0.526724398136139,10.0987424850464,-12.5647706985474,1.30723416805267,14.1976156234741,-6.73728370666504,0.751779317855835,7.64229202270508,-16.7546234130859,-0.114921681582928,-0.387860685586929,-10.3429517745972,-0.411802679300308,3.02148246765137,-10.6877164840698,1.03908348083496,10.8792524337769,-14.8105316162109,0.158017307519913,10.9750204086304,-7.69017601013184,0.153228908777237,8.23605346679688,-11.9039707183838,1.64242231845856,6.77559089660645,-13.6325845718384,0.383072257041931,0.426167905330658,-9.72524738311768,-1.20667767524719,7.56567716598511,-11.8321447372437,0.335188239812851,13.0100917816162,-8.23605346679688,0.0191536135971546,7.88650035858154,-9.44752025604248,1.59932672977448,6.26323175430298,-13.5511817932129,1.81001651287079,-2.06380176544189,-9.7013053894043,1.67594122886658,6.02381134033203,-11.2719011306763,1.00077629089355,14.3412685394287,-9.50019264221191,4.02225875854492,8.00142192840576,-9.99339771270752,0.617704033851624,6.95755004882812,-12.923900604248,1.95366859436035,2.01112937927246,-7.21612405776978,-1.13006317615509,6.05733013153076,-3.89297199249268,3.34709405899048,7.953537940979,-0.751779317855835,9.71567058563232,2.6240451335907,-1.47003984451294,8.51856994628906,3.70143580436707,-0.775721371173859,4.19464159011841,5.84664058685303,-6.6271505355835,2.94486808776855,6.83784008026123,-10.1657800674438,4.05577754974365,11.6693391799927,-8.67179870605469,-0.928950250148773,9.4044246673584,-10.8553104400635,1.00556468963623,6.24886655807495,-10.2567596435547,-0.205901339650154,-2.94965648651123,-9.96945571899414,-0.430956304073334,6.46434450149536,-10.9606552124023,-0.105344876646996,13.1968393325806,-10.1178960800171,0.718260526657104,7.67102241516113,-11.1186723709106,0.9720458984375,5.23851346969604,-13.1202249526978,-0.53630119562149,-3.72058939933777,-9.81622695922852,-2.13083958625793,4.60644388198853,-11.1665563583374,-0.268150597810745,11.32457447052,-11.4155540466309,0.857124209403992,7.92480754852295,-9.81143856048584,-0.37349545955658,2.92571449279785,-13.1824741363525,-4.67827033996582,0.876277804374695,-10.9175596237183,-2.09253239631653,4.07014274597168,-12.3875999450684,-2.75333189964294,8.36534118652344,-11.8608751296997,2.60489153862
walking,7.26879644393921,-7.72369480133057,-1.93930339813232,10.2807016372681,-8.67179870605469,-7.90086555480957,5.80354499816895,-6.7851676940918,-2.38941335678101,-1.68551802635193,-8.4706859588623,2.11647439002991,7.71890640258789,-15.1217775344849,-2.26491475105286,12.2918319702148,-9.69172859191895,-2.9161376953125,9.98382091522217,-10.9558668136597,0.0383072271943092,5.93283176422119,-14.499285697937,0.919373452663422,-3.84987640380859,-10.0843772888184,2.51870012283325,5.42047262191772,-12.4785795211792,0.210689753293991,11.9757966995239,-12.5647706985474,-0.976834297180176,9.22725296020508,-8.42759037017822,-0.641646027565002,5.00388145446777,-12.6749038696289,2.14520478248596,-3.5769374370575,-10.9031944274902,-0.110133275389671,3.17949986457825,-10.5009689331055,-1.84353530406952,13.1872625350952,-10.089165687561,0.526724398136139,7.58483076095581,-8.83460426330566,1.45567464828491,5.46356821060181,-11.4634380340576,-0.464475125074387,-1.22104287147522,-9.29907894134521,0.684741675853729,5.05176544189453,-9.97424411773682,-0.617704033851624,9.66299819946289,-11.7028579711914,-0.0622492432594299,10.0939540863037,-8.08761310577393,0.0526724383234978,5.66468143463135,-11.501745223999,-1.5179238319397,0.900219857692719,-11.1904983520508,-3.87381839752197,4.53461790084839,-11.3485164642334,-1.3407529592514,12.8089790344238,-10.788272857666,0.636857628822327,12.1098718643188,-8.37970638275146,1.35032975673676,5.20978307723999,-12.9143238067627,-1.67594122886658,4.51067590713501,1.80522811412811,10.7164468765259,0.459686726331711,-0.177170932292938,8.94473743438721,1.54665434360504,-0.732625722885132,12.895170211792,-0.234631761908531,0.885854601860046,7.19697046279907,0.995987892150879,1.56580793857574,10.7308120727539,-0.924161851406097,-0.263362199068069,10.7930612564087,0.895431458950043,0.407014280557632,7.7572135925293,-0.100556470453739,0.627280831336975,10.046070098877,0.205901339650154,0.110133275389671,9.97424411773682,-1.2258312702179,1.65199911594391,8.18338108062744,0.617704033851624,1.85311210155487,10.7356004714966,-0.0670376494526863,1.75734400749207,9.69651699066162,-0.134075298905373,3.06457805633545,9.53849983215332,-1.48919343948364,-0.00478840339928865,10.1274728775024,-0.407014280557632,0.234631761908531,10.7643308639526,-2.51391172409058,3.58172583580017,6.45955610275269,1.14442837238312,-2.24097275733948,0.675164878368378,18.5694274902344,-17.8990516662598,3.72058939933777,9.15542697906494,-5.17626428604126,4.35744714736938,10.4004125595093,-9.95987892150879,3.4811692237854,7.97747993469238,-10.5344877243042,3.52905321121216,2.72460150718689,-1.89620769023895,5.91367816925049
walking,7.26879644393921,-7.72369480133057,-1.93930339813232,10.2807016372681,-8.67179870605469,-7.90086555480957,5.80354499816895,-6.7851676940918,-2.38941335678101,-1.68551802635193,-8.4706859588623,2.11647439002991,7.71890640258789,-15.1217775344849,-2.26491475105286,12.2918319702148,-9.69172859191895,-2.9161376953125,9.98382091522217,-10.9558668136597,0.0383072271943092,5.93283176422119,-14.499285697937,0.919373452663422,-3.84987640380859,-10.0843772888184,2.51870012283325,5.42047262191772,-12.4785795211792,0.210689753293991,11.9757966995239,-12.5647706985474,-0.976834297180176,9.22725296020508,-8.42759037017822,-0.641646027565002,5.00388145446777,-12.6749038696289,2.14520478248596,-3.5769374370575,-10.9031944274902,-0.110133275389671,3.17949986457825,-10.5009689331055,-1.84353530406952,13.1872625350952,-10.089165687561,0.526724398136139,7.58483076095581,-8.83460426330566,1.45567464828491,5.46356821060181,-11.4634380340576,-0.464475125074387,-1.22104287147522,-9.29907894134521,0.684741675853729,5.05176544189453,-9.97424411773682,-0.617704033851624,9.66299819946289,-11.7028579711914,-0.0622492432594299,10.0939540863037,-8.08761310577393,0.0526724383234978,5.66468143463135,-11.501745223999,-1.5179238319397,0.900219857692719,-11.1904983520508,-3.87381839752197,4.53461790084839,-11.3485164642334,-1.3407529592514,12.8089790344238,-10.788272857666,0.636857628822327,12.1098718643188,-8.37970638275146,1.35032975673676,5.20978307723999,-12.9143238067627,-1.67594122886658,4.51067590713501,1.80522811412811,10.7164468765259,0.459686726331711,-0.177170932292938,8.94473743438721,1.54665434360504,-0.732625722885132,12.895170211792,-0.234631761908531,0.885854601860046,7.19697046279907,0.995987892150879,1.56580793857574,10.7308120727539,-0.924161851406097,-0.263362199068069,10.7930612564087,0.895431458950043,0.407014280557632,7.7572135925293,-0.100556470453739,0.627280831336975,10.046070098877,0.205901339650154,0.110133275389671,9.97424411773682,-1.2258312702179,1.65199911594391,8.18338108062744,0.617704033851624,1.85311210155487,10.7356004714966,-0.0670376494526863,1.75734400749207,9.69651699066162,-0.134075298905373,3.06457805633545,9.53849983215332,-1.48919343948364,-0.00478840339928865,10.1274728775024,-0.407014280557632,0.234631761908531,10.7643308639526,-2.51391172409058,3.58172583580017,6.45955610275269,1.14442837238312,-2.24097275733948,0.675164878368378,18.5694274902344,-17.8990516662598,3.72058939933777,9.15542697906494,-5.17626428604126,4.35744714736938,10.4004125595093,-9.95987892150879,3.4811692237854,7.97747993469238,-10.5344877243042,3.52905321121216,2.72460150718689,-1.89620769023895,5.91367816925049
running,-3.30878663063049,0.43574470281601,10.1849336624146,-3.04063606262207,-0.775721371173859,13.239935874939,2.08774399757385,3.38540124893188,14.4035177230835,0.991199493408203,3.10767388343811,12.4642143249512,3.4620156288147,-3.13161587715149,2.94486808776855,4.3143515586853,7.15866327285767,13.6469497680664,-1.81001651287079,5.6742582321167,6.5553240776062,2.77727389335632,1.68072962760925,10.1753568649292,1.36469495296478,2.0829553604126,1.33596456050873,3.5003228187561,6.87614727020264,4.80276870727539,19.7761058807373,1.21625447273254,19.4792251586914,4.35265874862671,-5.8514289855957,-4.35265874862671,16.0459403991699,0.737414121627808,25.5892276763916,-0.742202520370483,2.26491475105286,5.81791019439697,8.85375785827637,1.44609785079956,16.9317951202393,1.14921677112579,-5.04697704315186,1.65678763389587,9.9981861114502,8.2504186630249,21.7632942199707,1.64242231845856,2.60010313987732,5.82748699188232,1.12048637866974,2.84431171417236,0.900219857692719,4.26646757125854,-1.10612118244171,-0.421379506587982,-0.22505496442318,8.81066226959229,4.91769027709961,9.74440097808838,3.81156921386719,27.380090713501,2.00155258178711,-10.3573169708252,-1.52750062942505,21.4376811981201,5.9902925491333,29.5061416625977,-2.6431987285614,4.40533113479614,11.8848171234131,2.91134929656982,-0.809240162372589,-0.268150597810745,6.05733013153076,4.36223554611206,2.32237553596497,0.177170932292938,7.01022243499756,2.71981310844421,16.0172100067139,4.84586429595947,19.1200942993164,-0.828393816947937,-7.74284839630127,-6.97670364379883,18.4832363128662,8.20253467559814,27.2843227386475,6.68461132049561,7.43160200119019,15.8544034957886,3.26569104194641,-5.57370138168335,-2.34152936935425,26.5756397247314,5.51145219802856,17.4010581970215,-2.05422496795654,6.74686050415039,4.30477476119995,5.72214221954346,1.8674772977829,5.68862342834473,0.119710087776184,-3.12203907966614,-1.35990655422211,2.79642748832703,9.5815954208374,5.11880302429199,11.9374895095825,5.90888977050781,23.2572746276855,3.10288548469543,-5.07091903686523,-0.445321530103683,14.9685487747192,-0.670376479625702,19.8575096130371,1.9632453918457,1.9249382019043,5.03261184692383,8.25520706176758,-2.37504816055298,11.9135475158691,-5.91367816925049,-1.8866308927536,-5.54497098922729,8.82981586456299,7.44596719741821,16.7211055755615,17.5638637542725,2.14520478248596,20.2788887023926,1.13963997364044,-11.8943939208984,-5.4061074256897,8.68137550354004,5.75087261199951,27.8876609802246,-2.41814374923706,2.38941335678101,7.22570085525513,5.22893667221069,0.584185242652893,4.39575433731079
running,5.75566101074219,4.39096593856812,15.1169891357422,1.80043971538544,1.96803379058838,8.71489429473877,3.66312861442566,2.16435837745667,15.2941608428955,0.804451763629913,2.69108271598816,3.17949986457825,-1.00077629089355,4.20421838760376,6.57926607131958,3.39018964767456,4.51546430587769,15.2510652542114,2.43729734420776,-2.15478157997131,6.33984613418579,-2.14041638374329,4.9990930557251,10.6925048828125,0.943315446376801,2.27927994728088,8.22168827056885,-0.00957680679857731,2.0973207950592,9.93593692779541,3.06457805633545,3.22259545326233,-0.569819986820221,-1.38863694667816,6.78995609283447,0.287304192781448,1.84353530406952,5.73650741577148,23.654712677002,2.90656089782715,-8.55208873748779,0.866701006889343,17.5351333618164,5.47793340682983,47.2950592041016,-1.55144274234772,2.45166254043579,7.80988597869873,-1.42215585708618,3.92649078369141,3.93606758117676,1.80522811412811,-2.71023631095886,-1.03429508209229,1.86268889904022,9.19373416900635,5.79396820068359,10.4626617431641,5.51624059677124,14.8632040023804,0.72304892539978,-0.493205547332764,2.61925673484802,-0.0383072271943092,-0.18674772977829,-4.13718032836914,6.28717374801636,6.87614727020264,7.46512079238892,4.00789356231689,9.73003578186035,11.7698955535889,1.85311210155487,-1.20188927650452,-0.105344876646996,1.14921677112579,2.16914677619934,0.876277804374695,-0.967257499694824,8.87291145324707,5.38695383071899,16.7354698181152,11.2623243331909,27.3561477661133,5.19541788101196,-10.9415016174316,-0.0239420160651207,27.9068145751953,2.28885674476624,34.0024528503418,-1.81959331035614,3.29920983314514,9.16500377655029,-0.751779317855835,0.325611442327499,0.210689753293991,7.6375036239624,3.94085597991943,2.5282769203186,-5.34864664077759,4.62559747695923,8.01099872589111,11.5831480026245,11.6262435913086,24.9811000823975,-0.684741675853729,-10.2567596435547,-10.448296546936,32.0823020935059,12.349292755127,33.0591354370117,-3.01669406890869,4.51546430587769,10.5009689331055,-0.732625722885132,-1.68072962760925,-2.82036972045898,10.6589860916138,3.61045622825623,-0.272938996553421,4.91769027709961,9.79228496551514,17.4393653869629,13.7235641479492,4.07014274597168,18.6604080200195,-1.71424841880798,-9.91199493408203,-8.80587387084961,12.181697845459,12.6605386734009,23.7217502593994,8.4323787689209,4.6830587387085,16.0411510467529,1.77649760246277,-7.19697046279907,1.02950668334961,12.3540811538696,15.179238319397,16.0507278442383,-0.957680702209473,1.24019646644592,2.29843354225159,0.421379506587982,6.009446144104,12.8281326293945,4.11323833465576,1.87226569652557,2.90177249908447
running,6.67982292175293,6.19140577316284,10.2184524536133,3.60087943077087,4.46758031845093,7.37892961502075,2.77248549461365,9.27992534637451,12.9861497879028,0.354341864585876,-3.76368498802185,-2.10210919380188,4.8410758972168,10.6158905029297,26.3314304351807,-1.21146607398987,3.96000957489014,10.6063137054443,1.24019646644592,1.53707754611969,-6.10521411895752,9.22725296020508,2.56658411026001,-2.05422496795654,3.0550012588501,10.2998561859131,11.9135475158691,9.45709705352783,3.9073371887207,15.0068559646606,2.10689759254456,-9.11233139038086,-2.48518133163452,9.75397777557373,3.91212558746338,33.5523414611816,3.14598107337952,4.53940629959106,14.8009548187256,4.48673391342163,-6.1100025177002,-1.75255560874939,25.5557098388672,4.58729028701782,19.9341239929199,-1.89141929149628,4.34308195114136,4.8602294921875,6.50265169143677,-0.445321530103683,15.8831338882446,3.16513466835022,-4.17069959640503,-8.98783302307129,10.6829280853271,7.70454120635986,13.608642578125,5.39653062820435,6.70376491546631,17.1664257049561,2.12605118751526,-5.09486103057861,-2.52348852157593,22.0362319946289,3.33272886276245,24.6842193603516,-1.70467162132263,3.80678081512451,6.2201361656189,7.79073238372803,1.57059633731842,16.5104141235352,1.28808057308197,-5.65989303588867,-6.05733013153076,9.52413463592529,7.80509757995605,26.53733253479,-0.349553436040878,0.684741675853729,1.44609785079956,3.12682747840881,8.50899314880371,4.43884992599487,1.84353530406952,-6.85699367523193,-2.14520478248596,4.93684387207031,10.2854900360107,22.5198612213135,0.809240162372589,5.30076265335083,10.6972932815552,-3.35667085647583,-2.2361843585968,-0.296881020069122,6.3973069190979,3.56736063957214,7.00543403625488,2.9161376953125,6.55053567886353,2.17393517494202,10.1657800674438,11.3724584579468,24.9954662322998,6.54574728012085,-8.75320148468018,0.191536128520966,5.0374002456665,5.37737703323364,29.3289699554443,-2.28885674476624,3.3231520652771,8.26957225799561,1.51313543319702,1.67594122886658,-0.191536128520966,7.47469758987427,-1.66636443138123,0.22505496442318,9.53371143341064,9.52413463592529,12.9143238067627,11.4394960403442,6.22971296310425,21.8016014099121,5.09486103057861,-10.5727949142456,0.770932972431183,9.60074901580811,11.9614315032959,31.9578037261963,-3.87860679626465,4.47715711593628,6.19619417190552,-0.632069230079651,-1.03429508209229,0.229843363165855,10.2615480422974,4.85544109344482,3.14119267463684,-1.10612118244171,7.83382797241211,5.08049583435059,3.45243883132935,6.09563732147217,15.4090824127197,4.09887313842773,-4.89374828338623,-5.49229860305786
running,3.29442143440247,9.10275459289551,16.979679107666,-2.55221891403198,9.24640655517578,15.6006183624268,2.28885674476624,-3.7349545955658,4.9990930557251,6.36378812789917,-3.31836366653442,8.94473743438721,1.944091796875,-0.16280572116375,9.23682975769043,-0.205901339650154,-1.07260239124298,8.0732479095459,-2.68150591850281,3.5769374370575,8.73883628845215,-1.08696758747101,1.08696758747101,5.00866985321045,-2.88261890411377,0.387860685586929,13.4123182296753,-0.742202520370483,1.97282218933105,5.76523780822754,0.450109928846359,3.21780705451965,4.37181234359741,2.2170307636261,2.85867691040039,22.8550491333008,2.94965648651123,-3.62960982322693,2.14041638374329,4.35744714736938,6.09084892272949,11.7986259460449,-0.526724398136139,1.48919343948364,1.05823719501495,8.06845951080322,-0.0574608407914639,25.7616100311279,5.64552783966064,-3.97437477111816,0.18674772977829,3.7349545955658,4.62559747695923,16.6349124908447,-1.79565131664276,3.77805018424988,4.54898309707642,-0.766144514083862,2.10689759254456,16.95094871521,3.33272886276245,-4.50588750839233,-3.33751726150513,7.85776996612549,9.60074901580811,21.1168594360352,-0.359130263328552,3.99352836608887,13.5607585906982,0.521935999393463,0.708683729171753,-0.794874966144562,14.0443868637085,2.66714072227478,7.55131196975708,-1.91536140441895,6.83305168151855,4.6303858757019,7.64708042144775,5.51145219802856,19.3068428039551,2.12126278877258,-7.67581081390381,-4.88895988464355,7.78594398498535,8.78672027587891,29.4055843353271,-2.05422496795654,4.00789356231689,12.5599822998047,1.07739078998566,1.07260239124298,-0.110133275389671,11.8129911422729,3.47159242630005,3.35667085647583,-1.43173265457153,8.29830265045166,2.45645093917847,5.28160905838013,5.56891298294067,16.816873550415,2.84431171417236,-6.1291561126709,-5.04697704315186,2.79642748832703,6.58405447006226,21.5047187805176,1.20188927650452,4.3143515586853,21.1551666259766,4.06056594848633,-4.98472785949707,0.967257499694824,6.93839645385742,-3.39976644515991,10.1945104598999,-3.39497804641724,1.91536140441895,13.1489553451538,3.68707060813904,-1.88184249401093,13.0436105728149,-0.105344876646996,-1.05344879627228,-5.80354499816895,3.25611424446106,2.47081613540649,16.8503913879395,5.72693061828613,1.08696758747101,19.5797805786133,2.01591777801514,-0.502782344818115,2.9161376953125,7.38371801376343,-0.105344876646996,4.58250188827515,1.87226569652557,1.83395850658417,16.8599681854248,3.50511121749878,3.07415509223938,10.6925048828125,-2.55221891403198,2.45166254043579,3.30878663063049,1.80522811412811,0.392649084329605,3.78762698173523
running,3.29442143440247,9.10275459289551,16.979679107666,-2.55221891403198,9.24640655517578,15.6006183624268,2.28885674476624,-3.7349545955658,4.9990930557251,6.36378812789917,-3.31836366653442,8.94473743438721,1.944091796875,-0.16280572116375,9.23682975769043,-0.205901339650154,-1.07260239124298,8.0732479095459,-2.68150591850281,3.5769374370575,8.73883628845215,-1.08696758747101,1.08696758747101,5.00866985321045,-2.88261890411377,0.387860685586929,13.4123182296753,-0.742202520370483,1.97282218933105,5.76523780822754,0.450109928846359,3.21780705451965,4.37181234359741,2.2170307636261,2.85867691040039,22.8550491333008,2.94965648651123,-3.62960982322693,2.14041638374329,4.35744714736938,6.09084892272949,11.7986259460449,-0.526724398136139,1.48919343948364,1.05823719501495,8.06845951080322,-0.0574608407914639,25.7616100311279,5.64552783966064,-3.97437477111816,0.18674772977829,3.7349545955658,4.62559747695923,16.6349124908447,-1.79565131664276,3.77805018424988,4.54898309707642,-0.766144514083862,2.10689759254456,16.95094871521,3.33272886276245,-4.50588750839233,-3.33751726150513,7.85776996612549,9.60074901580811,21.1168594360352,-0.359130263328552,3.99352836608887,13.5607585906982,0.521935999393463,0.708683729171753,-0.794874966144562,14.0443868637085,2.66714072227478,7.55131196975708,-1.91536140441895,6.83305168151855,4.6303858757019,7.64708042144775,5.51145219802856,19.3068428039551,2.12126278877258,-7.67581081390381,-4.88895988464355,7.78594398498535,8.78672027587891,29.4055843353271,-2.05422496795654,4.00789356231689,12.5599822998047,1.07739078998566,1.07260239124298,-0.110133275389671,11.8129911422729,3.47159242630005,3.35667085647583,-1.43173265457153,8.29830265045166,2.45645093917847,5.28160905838013,5.56891298294067,16.816873550415,2.84431171417236,-6.1291561126709,-5.04697704315186,2.79642748832703,6.58405447006226,21.5047187805176,1.20188927650452,4.3143515586853,21.1551666259766,4.06056594848633,-4.98472785949707,0.967257499694824,6.93839645385742,-3.39976644515991,10.1945104598999,-3.39497804641724,1.91536140441895,13.1489553451538,3.68707060813904,-1.88184249401093,13.0436105728149,-0.105344876646996,-1.05344879627228,-5.80354499816895,3.25611424446106,2.47081613540649,16.8503913879395,5.72693061828613,1.08696758747101,19.5797805786133,2.01591777801514,-0.502782344818115,2.9161376953125,7.38371801376343,-0.105344876646996,4.58250188827515,1.87226569652557,1.83395850658417,16.8599681854248,3.50511121749878,3.07415509223938,10.6925048828125,-2.55221891403198,2.45166254043579,3.30878663063049,1.80522811412811,0.392649084329605,3.78762698173523
running,-2.10689759254456,2.49954652786255,11.5065336227417,0.014365210197866,0.215478152036667,11.6549739837646,4.43884992599487,1.29286897182465,18.559850692749,3.91212558746338,-5.21457147598267,1.51313543319702,0.153228908777237,3.63918662071228,15.1217775344849,4.6112322807312,3.54820680618286,18.9285583496094,0.938527047634125,-5.46835660934448,-2.92092609405518,30.0520191192627,3.12203907966614,17.6404781341553,2.01112937927246,4.00310516357422,5.68383502960205,11.0612115859985,-2.56179571151733,19.9245471954346,1.19231247901917,-8.04451751708984,-5.50187540054321,2.32716393470764,3.83072280883789,37.804443359375,-1.00556468963623,0.287304192781448,4.19942998886108,0.0574608407914639,2.14999318122864,11.4825916290283,3.86424160003662,-2.47081613540649,-1.74776721000671,1.17315888404846,8.12113189697266,14.6668796539307,6.53138208389282,3.31357526779175,28.1606006622314,2.31758713722229,-11.9566431045532,-3.55778384208679,19.8575096130371,15.1026239395142,27.6913375854492,-2.71981310844421,2.99275207519531,7.10599040985107,0.861912608146667,-3.17471146583557,-0.153228908777237,13.8576393127441,6.77559089660645,10.4674501419067,-3.37103605270386,11.2575359344482,-2.43729734420776,7.23527765274048,-0.790086567401886,15.2319116592407,1.31681096553802,-4.00789356231689,-5.20499467849731,-0.411802679300308,9.49540424346924,5.80354499816895,22.7592811584473,14.9110879898071,25.3545951843262,-0.919373452663422,-12.7946138381958,-3.29442143440247,11.7794723510742,10.1705684661865,32.7431030273437,1.62805712223053,4.95120906829834,15.9932670593262,2.62883353233337,-3.21301865577698,-6.24886655807495,18.2964897155762,3.50511121749878,9.81143856048584,-2.34631776809692,8.65264511108398,-0.153228908777237,9.4427318572998,1.19231247901917,8.99740982055664,0.603338837623596,-3.10288548469543,-5.07570743560791,2.18830037117004,9.52892303466797,8.0540943145752,16.0124206542969,4.26646757125854,16.3380317687988,1.07260239124298,-7.39329481124878,-0.627280831336975,3.27526783943176,-3.6343982219696,37.095760345459,-3.28484463691711,4.0462007522583,4.35265874862671,3.16513466835022,5.35343503952026,13.5320281982422,6.45476770401001,-13.3261270523071,3.4811692237854,16.1943798065186,10.8984060287476,30.0903263092041,6.05254173278809,3.10288548469543,24.0473613739014,3.7541081905365,-5.29597425460815,-4.6830587387085,1.98239898681641,6.20577096939087,19.0195388793945,0.512359142303467,4.71657752990723,3.24174904823303,0.53630119562149,6.49307489395142,5.8514289855957,1.13963997364044,-2.65756392478943,-1.43652105331421,-0.718260526657104,10.9175596237183,9.85453414916992
running,-2.10689759254456,2.49954652786255,11.5065336227417,0.014365210197866,0.215478152036667,11.6549739837646,4.43884992599487,1.29286897182465,18.559850692749,3.91212558746338,-5.21457147598267,1.51313543319702,0.153228908777237,3.63918662071228,15.1217775344849,4.6112322807312,3.54820680618286,18.9285583496094,0.938527047634125,-5.46835660934448,-2.92092609405518,30.0520191192627,3.12203907966614,17.6404781341553,2.01112937927246,4.00310516357422,5.68383502960205,11.0612115859985,-2.56179571151733,19.9245471954346,1.19231247901917,-8.04451751708984,-5.50187540054321,2.32716393470764,3.83072280883789,37.804443359375,-1.00556468963623,0.287304192781448,4.19942998886108,0.0574608407914639,2.14999318122864,11.4825916290283,3.86424160003662,-2.47081613540649,-1.74776721000671,1.17315888404846,8.12113189697266,14.6668796539307,6.53138208389282,3.31357526779175,28.1606006622314,2.31758713722229,-11.9566431045532,-3.55778384208679,19.8575096130371,15.1026239395142,27.6913375854492,-2.71981310844421,2.99275207519531,7.10599040985107,0.861912608146667,-3.17471146583557,-0.153228908777237,13.8576393127441,6.77559089660645,10.4674501419067,-3.37103605270386,11.2575359344482,-2.43729734420776,7.23527765274048,-0.790086567401886,15.2319116592407,1.31681096553802,-4.00789356231689,-5.20499467849731,-0.411802679300308,9.49540424346924,5.80354499816895,22.7592811584473,14.9110879898071,25.3545951843262,-0.919373452663422,-12.7946138381958,-3.29442143440247,11.7794723510742,10.1705684661865,32.7431030273437,1.62805712223053,4.95120906829834,15.9932670593262,2.62883353233337,-3.21301865577698,-6.24886655807495,18.2964897155762,3.50511121749878,9.81143856048584,-2.34631776809692,8.65264511108398,-0.153228908777237,9.4427318572998,1.19231247901917,8.99740982055664,0.603338837623596,-3.10288548469543,-5.07570743560791,2.18830037117004,9.52892303466797,8.0540943145752,16.0124206542969,4.26646757125854,16.3380317687988,1.07260239124298,-7.39329481124878,-0.627280831336975,3.27526783943176,-3.6343982219696,37.095760345459,-3.28484463691711,4.0462007522583,4.35265874862671,3.16513466835022,5.35343503952026,13.5320281982422,6.45476770401001,-13.3261270523071,3.4811692237854,16.1943798065186,10.8984060287476,30.0903263092041,6.05254173278809,3.10288548469543,24.0473613739014,3.7541081905365,-5.29597425460815,-4.6830587387085,1.98239898681641,6.20577096939087,19.0195388793945,0.512359142303467,4.71657752990723,3.24174904823303,0.53630119562149,6.49307489395142,5.8514289855957,1.13963997364044,-2.65756392478943,-1.43652105331421,-0.718260526657104,10.9175596237183,9.85453414916992
running,14.0395984649658,13.5032978057861,26.2691802978516,2.60489153862,-11.9949502944946,-0.00478840339928865,10.3956241607666,10.1178960800171,28.4622707366943,-3.45722723007202,3.25132584571838,8.73404788970947,1.73340201377869,-0.612915635108948,-2.86825370788574,8.42280197143555,6.46913290023804,8.82981586456299,1.31681096553802,7.67102241516113,5.70298862457275,0.943315446376801,4.37181234359741,14.484920501709,3.76847338676453,-3.70622420310974,-2.35589456558228,12.167332649231,1.36469495296478,25.2875576019287,3.96958637237549,5.37258863449097,20.0634098052979,3.26569104194641,-6.12436771392822,-1.08217918872833,5.41089582443237,6.05733013153076,18.3587379455566,-1.48919343948364,3.44286203384399,4.40054273605347,0.502782344818115,0.0861912593245506,12.349292755127,2.77727389335632,-4.56813669204712,-4.42448472976685,6.38294172286987,6.5361704826355,13.3787994384766,6.76122570037842,-2.10210919380188,15.3947172164917,3.49074602127075,1.28329205513,-1.23540806770325,0.732625722885132,1.48919343948364,3.51468801498413,1.78607451915741,6.19140577316284,6.26802015304565,11.1665563583374,11.0659999847412,20.149600982666,4.6303858757019,-9.76355457305908,1.04387199878693,10.1657800674438,8.67658710479736,22.8454723358154,-0.53630119562149,4.94642066955566,5.63116216659546,4.3143515586853,1.49877023696899,16.2997245788574,4.11323833465576,-3.71580100059509,-3.37103605270386,1.28329205513,5.64552783966064,19.7282218933105,3.65834021568298,5.59285497665405,22.3570556640625,-2.58094954490662,-5.58806657791138,-9.720458984375,15.9836902618408,2.2553379535675,20.4847888946533,-2.26970314979553,7.53215837478638,3.44286203384399,5.92325496673584,-6.04775333404541,19.3978214263916,-0.0766144543886185,-3.11725068092346,-6.61757326126099,-0.981622695922852,4.94642066955566,17.492036819458,8.01099872589111,2.58094954490662,31.8380947113037,1.65199911594391,-10.4147777557373,-1.28329205513,6.2584433555603,11.113883972168,28.644229888916,-3.82593441009521,5.44920301437378,5.65031623840332,3.82593441009521,0.00478840339928865,5.34385824203491,5.55454778671265,1.9249382019043,1.60890352725983,-0.90979665517807,8.96867942810059,7.45075559616089,7.45554399490356,2.03985977172852,20.0969295501709,1.58974993228912,-9.18894577026367,-5.8131217956543,12.5312519073486,6.22971296310425,32.4366455078125,1.51313543319702,3.02148246765137,7.67581081390381,2.3511061668396,1.77649760246277,5.68383502960205,1.93451499938965,-0.790086567401886,-0.957680702209473,1.27371525764465,5.23851346969604,4.81713390350342,13.6708917617798,7.73805999755859,22.9364528656006
running,14.0395984649658,13.5032978057861,26.2691802978516,2.60489153862,-11.9949502944946,-0.00478840339928865,10.3956241607666,10.1178960800171,28.4622707366943,-3.45722723007202,3.25132584571838,8.73404788970947,1.73340201377869,-0.612915635108948,-2.86825370788574,8.42280197143555,6.46913290023804,8.82981586456299,1.31681096553802,7.67102241516113,5.70298862457275,0.943315446376801,4.37181234359741,14.484920501709,3.76847338676453,-3.70622420310974,-2.35589456558228,12.167332649231,1.36469495296478,25.2875576019287,3.96958637237549,5.37258863449097,20.0634098052979,3.26569104194641,-6.12436771392822,-1.08217918872833,5.41089582443237,6.05733013153076,18.3587379455566,-1.48919343948364,3.44286203384399,4.40054273605347,0.502782344818115,0.0861912593245506,12.349292755127,2.77727389335632,-4.56813669204712,-4.42448472976685,6.38294172286987,6.5361704826355,13.3787994384766,6.76122570037842,-2.10210919380188,15.3947172164917,3.49074602127075,1.28329205513,-1.23540806770325,0.732625722885132,1.48919343948364,3.51468801498413,1.78607451915741,6.19140577316284,6.26802015304565,11.1665563583374,11.0659999847412,20.149600982666,4.6303858757019,-9.76355457305908,1.04387199878693,10.1657800674438,8.67658710479736,22.8454723358154,-0.53630119562149,4.94642066955566,5.63116216659546,4.3143515586853,1.49877023696899,16.2997245788574,4.11323833465576,-3.71580100059509,-3.37103605270386,1.28329205513,5.64552783966064,19.7282218933105,3.65834021568298,5.59285497665405,22.3570556640625,-2.58094954490662,-5.58806657791138,-9.720458984375,15.9836902618408,2.2553379535675,20.4847888946533,-2.26970314979553,7.53215837478638,3.44286203384399,5.92325496673584,-6.04775333404541,19.3978214263916,-0.0766144543886185,-3.11725068092346,-6.61757326126099,-0.981622695922852,4.94642066955566,17.492036819458,8.01099872589111,2.58094954490662,31.8380947113037,1.65199911594391,-10.4147777557373,-1.28329205513,6.2584433555603,11.113883972168,28.644229888916,-3.82593441009521,5.44920301437378,5.65031623840332,3.82593441009521,0.00478840339928865,5.34385824203491,5.55454778671265,1.9249382019043,1.60890352725983,-0.90979665517807,8.96867942810059,7.45075559616089,7.45554399490356,2.03985977172852,20.0969295501709,1.58974993228912,-9.18894577026367,-5.8131217956543,12.5312519073486,6.22971296310425,32.4366455078125,1.51313543319702,3.02148246765137,7.67581081390381,2.3511061668396,1.77649760246277,5.68383502960205,1.93451499938965,-0.790086567401886,-0.957680702209473,1.27371525764465,5.23851346969604,4.81713390350342,13.6708917617798,7.73805999755859,22.9364528656006
running,2.30322194099426,-6.07648372650146,6.26323175430298,12.2631015777588,3.69185900688171,15.3037376403809,-1.22104287147522,8.68616390228271,5.2672438621521,4.65432786941528,1.58017313480377,21.8590621948242,2.57616114616394,-7.07247161865234,-5.00866985321045,5.47793340682983,7.49863958358765,27.6195106506348,-4.47715711593628,4.34787034988403,9.07402420043945,2.74375510215759,-1.01992988586426,-3.3231520652771,14.9589719772339,2.55700731277466,15.0691051483154,-2.3702597618103,7.9343843460083,-0.344765037298203,9.30865573883057,2.72938990592957,18.8710975646973,0.943315446376801,-9.33738708496094,-6.21055936813354,8.81066226959229,5.11401462554932,28.7352085113525,1.85311210155487,0.464475125074387,18.7226581573486,0.191536128520966,-3.54341840744019,-9.13627338409424,15.5000619888306,1.20188927650452,10.9845972061157,-2.2361843585968,4.66390514373779,0.43574470281601,6.23450136184692,1.0486603975296,18.018762588501,2.75333189964294,-8.17859268188477,-4.92247867584229,10.7164468765259,3.04063606262207,34.8787307739258,-2.64798712730408,3.51947641372681,6.60799646377563,1.01514148712158,-0.0287304203957319,-1.42694425582886,9.15063858032227,8.4323787689209,4.50588750839233,3.38061285018921,8.2504186630249,2.9161376953125,10.5296993255615,4.17069959640503,17.9134178161621,4.88417148590088,-6.35421133041382,-2.59531474113464,7.16345167160034,4.01747035980225,31.8716125488281,-1.13006317615509,2.76769709587097,7.54173517227173,1.51313543319702,1.15400516986847,3.29920983314514,2.97838687896729,-4.17069959640503,2.48518133163452,1.9249382019043,8.00621032714844,13.2590894699097,0.0718260481953621,1.07260239124298,10.3477401733398,4.88417148590088,0.148440510034561,7.96311473846436,2.3702597618103,-0.244208574295044,2.39899015426636,-1.40779054164886,6.38294172286987,26.6809844970703,4.03183555603027,2.22660756111145,18.2342395782471,1.85790050029755,-3.66791701316833,-4.90332508087158,16.0219974517822,3.40934324264526,16.8264503479004,-1.28329205513,6.94797325134277,4.25210237503052,5.41568422317505,0.153228908777237,16.3284549713135,1.07260239124298,-4.25210237503052,-5.94240856170654,1.39821374416351,8.95431423187256,14.8201084136963,6.91924285888672,7.55610036849976,25.464729309082,2.03507137298584,-8.9064302444458,-0.713472127914429,7.44596719741821,2.20745396614075,24.0808811187744,-6.03817653656006,8.0732479095459,11.7555303573608,0.703895270824432,-0.0191536135971546,3.72537779808044,5.41568422317505,-1.97761058807373,0.31124621629715,0.588973641395569,7.3501992225647,13.9821376800537,10.3573169708252,4.0462007522583,28.2180614471436
running,2.30322194099426,-6.07648372650146,6.26323175430298,12.2631015777588,3.69185900688171,15.3037376403809,-1.22104287147522,8.68616390228271,5.2672438621521,4.65432786941528,1.58017313480377,21.8590621948242,2.57616114616394,-7.07247161865234,-5.00866985321045,5.47793340682983,7.49863958358765,27.6195106506348,-4.47715711593628,4.34787034988403,9.07402420043945,2.74375510215759,-1.01992988586426,-3.3231520652771,14.9589719772339,2.55700731277466,15.0691051483154,-2.3702597618103,7.9343843460083,-0.344765037298203,9.30865573883057,2.72938990592957,18.8710975646973,0.943315446376801,-9.33738708496094,-6.21055936813354,8.81066226959229,5.11401462554932,28.7352085113525,1.85311210155487,0.464475125074387,18.7226581573486,0.191536128520966,-3.54341840744019,-9.13627338409424,15.5000619888306,1.20188927650452,10.9845972061157,-2.2361843585968,4.66390514373779,0.43574470281601,6.23450136184692,1.0486603975296,18.018762588501,2.75333189964294,-8.17859268188477,-4.92247867584229,10.7164468765259,3.04063606262207,34.8787307739258,-2.64798712730408,3.51947641372681,6.60799646377563,1.01514148712158,-0.0287304203957319,-1.42694425582886,9.15063858032227,8.4323787689209,4.50588750839233,3.38061285018921,8.2504186630249,2.9161376953125,10.5296993255615,4.17069959640503,17.9134178161621,4.88417148590088,-6.35421133041382,-2.59531474113464,7.16345167160034,4.01747035980225,31.8716125488281,-1.13006317615509,2.76769709587097,7.54173517227173,1.51313543319702,1.15400516986847,3.29920983314514,2.97838687896729,-4.17069959640503,2.48518133163452,1.9249382019043,8.00621032714844,13.2590894699097,0.0718260481953621,1.07260239124298,10.3477401733398,4.88417148590088,0.148440510034561,7.96311473846436,2.3702597618103,-0.244208574295044,2.39899015426636,-1.40779054164886,6.38294172286987,26.6809844970703,4.03183555603027,2.22660756111145,18.2342395782471,1.85790050029755,-3.66791701316833,-4.90332508087158,16.0219974517822,3.40934324264526,16.8264503479004,-1.28329205513,6.94797325134277,4.25210237503052,5.41568422317505,0.153228908777237,16.3284549713135,1.07260239124298,-4.25210237503052,-5.94240856170654,1.39821374416351,8.95431423187256,14.8201084136963,6.91924285888672,7.55610036849976,25.464729309082,2.03507137298584,-8.9064302444458,-0.713472127914429,7.44596719741821,2.20745396614075,24.0808811187744,-6.03817653656006,8.0732479095459,11.7555303573608,0.703895270824432,-0.0191536135971546,3.72537779808044,5.41568422317505,-1.97761058807373,0.31124621629715,0.588973641395569,7.3501992225647,13.9821376800537,10.3573169708252,4.0462007522583,28.2180614471436
running,-0.16280572116375,-9.0644474029541,-0.679953277111053,8.98304462432861,2.5091233253479,28.5197315216064,18.4257755279541,7.32146883010864,23.5828876495361,1.06781399250031,3.01190567016602,9.67257499694824,0.526724398136139,3.6343982219696,7.83861637115479,-0.0191536135971546,1.71903681755066,9.85453414916992,2.86825370788574,-1.30244576931,1.73819041252136,-0.469263523817062,0.636857628822327,15.9310178756714,-2.02070617675781,0.0861912593245506,21.1599540710449,2.45645093917847,-2.14520478248596,0.612915635108948,11.5927248001099,3.87381839752197,12.9669961929321,-1.78607451915741,5.91846656799316,6.81868648529053,5.49708700180054,0.306457817554474,8.80108547210693,1.48919343948364,-4.9990930557251,-3.62003302574158,-2.22181916236877,7.13472127914429,7.86734676361084,7.28795003890991,5.52102899551392,31.5220603942871,2.14999318122864,-9.98860931396484,-1.31681096553802,8.55687713623047,1.39821374416351,36.1524467468262,-0.943315446376801,5.15711069107056,13.1202249526978,3.40934324264526,-0.78529816865921,-2.86825370788574,4.81713390350342,-3.52905321121216,4.29998636245728,3.03584766387939,7.46990919113159,11.0899419784546,11.2479591369629,0.857124209403992,23.9755363464355,3.69185900688171,-0.632069230079651,6.56490087509155,4.84586429595947,-1.24019646644592,4.20421838760376,4.36702394485474,6.35899972915649,13.9390420913696,6.34942293167114,2.70065951347351,9.63426780700684,0.181959331035614,3.35188245773315,1.90099620819092,4.85544109344482,-1.62805712223053,5.90888977050781,-0.268150597810745,6.47392129898071,5.41568422317505,0.78529816865921,6.38294172286987,17.3723278045654,2.90177249908447,-5.19062948226929,0.603338837623596,6.13873338699341,3.84987640380859,26.7767524719238,-3.78762698173523,3.70622420310974,10.9175596237183,2.28406834602356,1.05344879627228,-0.478840351104736,4.29040956497192,6.88572406768799,10.2184524536133,-0.277727395296097,5.69820022583008,4.33829355239868,-0.828393816947937,5.57848978042603,17.1376953125,2.69108271598816,-1.92972660064697,-2.07337856292725,-1.81001651287079,5.76044940948486,17.8176498413086,-0.114921681582928,7.1921820640564,17.4202117919922,2.12126278877258,-4.07971954345703,1.69509482383728,10.4913921356201,4.14675712585449,15.9358062744141,-7.41723680496216,6.48349809646606,5.67904663085937,3.59130263328552,1.49877023696899,7.3501992225647,6.33026933670044,0.694318473339081,2.52348852157593,0.18674772977829,10.5536413192749,11.9470663070679,12.0763530731201,9.31823348999023,10.9271364212036,4.21379518508911,-8.15465068817139,-0.196324542164803,12.5839242935181,8.22647666931152,32.7335243225098
running,-0.16280572116375,-9.0644474029541,-0.679953277111053,8.98304462432861,2.5091233253479,28.5197315216064,18.4257755279541,7.32146883010864,23.5828876495361,1.06781399250031,3.01190567016602,9.67257499694824,0.526724398136139,3.6343982219696,7.83861637115479,-0.0191536135971546,1.71903681755066,9.85453414916992,2.86825370788574,-1.30244576931,1.73819041252136,-0.469263523817062,0.636857628822327,15.9310178756714,-2.02070617675781,0.0861912593245506,21.1599540710449,2.45645093917847,-2.14520478248596,0.612915635108948,11.5927248001099,3.87381839752197,12.9669961929321,-1.78607451915741,5.91846656799316,6.81868648529053,5.49708700180054,0.306457817554474,8.80108547210693,1.48919343948364,-4.9990930557251,-3.62003302574158,-2.22181916236877,7.13472127914429,7.86734676361084,7.28795003890991,5.52102899551392,31.5220603942871,2.14999318122864,-9.98860931396484,-1.31681096553802,8.55687713623047,1.39821374416351,36.1524467468262,-0.943315446376801,5.15711069107056,13.1202249526978,3.40934324264526,-0.78529816865921,-2.86825370788574,4.81713390350342,-3.52905321121216,4.29998636245728,3.03584766387939,7.46990919113159,11.0899419784546,11.2479591369629,0.857124209403992,23.9755363464355,3.69185900688171,-0.632069230079651,6.56490087509155,4.84586429595947,-1.24019646644592,4.20421838760376,4.36702394485474,6.35899972915649,13.9390420913696,6.34942293167114,2.70065951347351,9.63426780700684,0.181959331035614,3.35188245773315,1.90099620819092,4.85544109344482,-1.62805712223053,5.90888977050781,-0.268150597810745,6.47392129898071,5.41568422317505,0.78529816865921,6.38294172286987,17.3723278045654,2.90177249908447,-5.19062948226929,0.603338837623596,6.13873338699341,3.84987640380859,26.7767524719238,-3.78762698173523,3.70622420310974,10.9175596237183,2.28406834602356,1.05344879627228,-0.478840351104736,4.29040956497192,6.88572406768799,10.2184524536133,-0.277727395296097,5.69820022583008,4.33829355239868,-0.828393816947937,5.57848978042603,17.1376953125,2.69108271598816,-1.92972660064697,-2.07337856292725,-1.81001651287079,5.76044940948486,17.8176498413086,-0.114921681582928,7.1921820640564,17.4202117919922,2.12126278877258,-4.07971954345703,1.69509482383728,10.4913921356201,4.14675712585449,15.9358062744141,-7.41723680496216,6.48349809646606,5.67904663085937,3.59130263328552,1.49877023696899,7.3501992225647,6.33026933670044,0.694318473339081,2.52348852157593,0.18674772977829,10.5536413192749,11.9470663070679,12.0763530731201,9.31823348999023,10.9271364212036,4.21379518508911,-8.15465068817139,-0.196324542164803,12.5839242935181,8.22647666931152,32.7335243225098
running,-0.16280572116375,-9.0644474029541,-0.679953277111053,8.98304462432861,2.5091233253479,28.5197315216064,18.4257755279541,7.32146883010864,23.5828876495361,1.06781399250031,3.01190567016602,9.67257499694824,0.526724398136139,3.6343982219696,7.83861637115479,-0.0191536135971546,1.71903681755066,9.85453414916992,2.86825370788574,-1.30244576931,1.73819041252136,-0.469263523817062,0.636857628822327,15.9310178756714,-2.02070617675781,0.0861912593245506,21.1599540710449,2.45645093917847,-2.14520478248596,0.612915635108948,11.5927248001099,3.87381839752197,12.9669961929321,-1.78607451915741,5.91846656799316,6.81868648529053,5.49708700180054,0.306457817554474,8.80108547210693,1.48919343948364,-4.9990930557251,-3.62003302574158,-2.22181916236877,7.13472127914429,7.86734676361084,7.28795003890991,5.52102899551392,31.5220603942871,2.14999318122864,-9.98860931396484,-1.31681096553802,8.55687713623047,1.39821374416351,36.1524467468262,-0.943315446376801,5.15711069107056,13.1202249526978,3.40934324264526,-0.78529816865921,-2.86825370788574,4.81713390350342,-3.52905321121216,4.29998636245728,3.03584766387939,7.46990919113159,11.0899419784546,11.2479591369629,0.857124209403992,23.9755363464355,3.69185900688171,-0.632069230079651,6.56490087509155,4.84586429595947,-1.24019646644592,4.20421838760376,4.36702394485474,6.35899972915649,13.9390420913696,6.34942293167114,2.70065951347351,9.63426780700684,0.181959331035614,3.35188245773315,1.90099620819092,4.85544109344482,-1.62805712223053,5.90888977050781,-0.268150597810745,6.47392129898071,5.41568422317505,0.78529816865921,6.38294172286987,17.3723278045654,2.90177249908447,-5.19062948226929,0.603338837623596,6.13873338699341,3.84987640380859,26.7767524719238,-3.78762698173523,3.70622420310974,10.9175596237183,2.28406834602356,1.05344879627228,-0.478840351104736,4.29040956497192,6.88572406768799,10.2184524536133,-0.277727395296097,5.69820022583008,4.33829355239868,-0.828393816947937,5.57848978042603,17.1376953125,2.69108271598816,-1.92972660064697,-2.07337856292725,-1.81001651287079,5.76044940948486,17.8176498413086,-0.114921681582928,7.1921820640564,17.4202117919922,2.12126278877258,-4.07971954345703,1.69509482383728,10.4913921356201,4.14675712585449,15.9358062744141,-7.41723680496216,6.48349809646606,5.67904663085937,3.59130263328552,1.49877023696899,7.3501992225647,6.33026933670044,0.694318473339081,2.52348852157593,0.18674772977829,10.5536413192749,11.9470663070679,12.0763530731201,9.31823348999023,10.9271364212036,4.21379518508911,-8.15465068817139,-0.196324542164803,12.5839242935181,8.22647666931152,32.7335243225098
running,-3.33751726150513,0.282515794038773,8.18816947937012,-6.24407815933228,-1.15400516986847,2.04464817047119,3.23217225074768,-3.43807363510132,7.87692356109619,-2.86825370788574,9.95030212402344,9.39963626861572,4.47715711593628,1.82917010784149,24.00905418396,1.69988322257996,-7.47948598861694,-4.08450794219971,2.63841032981873,13.0436105728149,9.85453414916992,1.56580793857574,6.86657047271729,24.5070476531982,-0.483628749847412,-4.63996267318726,-5.30076265335083,18.0953769683838,10.2567596435547,19.3930339813232,-1.6903064250946,4.43884992599487,7.51779317855835,0.957680702209473,-1.00556468963623,5.64552783966064,4.30956315994263,1.79086291790009,-2.9352912902832,1.6711528301239,7.24006605148315,3.36624765396118,13.1441669464111,4.90811347961426,14.4657669067383,-2.71981310844421,-6.54095888137817,-3.11725068092346,15.7011747360229,5.27203226089478,16.2709941864014,6.92881965637207,7.64229202270508,11.6166667938232,-1.69509482383728,1.01035308837891,1.80043971538544,10.0125513076782,-1.2641384601593,-3.53384160995483,1.34554135799408,10.5775833129883,2.05901336669922,9.29429054260254,3.42849683761597,20.8726501464844,0.914585053920746,-8.95910263061523,-3.98873996734619,3.85466480255127,10.1945104598999,14.8105316162109,4.72615432739258,9.23204135894775,21.6723136901855,3.44765043258667,-9.17936897277832,-4.67348194122314,10.8074264526367,15.729905128479,27.5620498657227,-4.36223554611206,4.86501789093018,9.17458057403564,0.905008256435394,-4.58250188827515,-0.914585053920746,25.4455757141113,9.03571701049805,24.751256942749,-4.8602294921875,6.8043212890625,-1.18273568153381,9.13627338409424,4.02225875854492,15.2079696655273,1.30244576931,-6.42603731155396,-4.62559747695923,1.01035308837891,9.09317779541016,10.2854900360107,16.4673194885254,8.96389102935791,34.2945442199707,4.06056594848633,-10.625467300415,-3.75889658927917,19.5702037811279,1.31202256679535,22.6395721435547,-0.363918662071228,5.11401462554932,10.8840408325195,0.976834297180176,-1.55144274234772,-2.16435837745667,11.0037508010864,0.804451763629913,-2.13083958625793,2.94007968902588,8.42759037017822,2.67192912101746,12.6509618759155,10.7451772689819,18.2533931732178,6.46913290023804,-8.03015232086182,4.97036266326904,15.5144271850586,4.82671070098877,15.8735570907593,-0.933738648891449,8.89685344696045,5.55454778671265,17.1233310699463,8.46589756011963,29.7838687896729,3.99831676483154,-11.3628816604614,0.469263523817062,4.6112322807312,8.78672027587891,35.0080184936523,-2.57616114616394,4.79319190979004,1.84832370281219,5.73650741577148,-1.35032975673676,0.574608385562897
running,5.90410137176514,6.24407815933228,5.46835660934448,-0.119710087776184,6.19140577316284,-1.32638776302338,-2.14520478248596,5.96156215667725,15.0260095596313,3.16513466835022,-2.17393517494202,1.60890352725983,6.64151573181152,4.76446151733398,21.2461452484131,-4.59686708450317,5.46835660934448,11.9518547058105,3.03584766387939,-6.36378812789917,-3.25132584571838,14.6381492614746,5.41089582443237,12.5025215148926,-1.50834703445435,8.89685344696045,3.39497804641724,0.584185242652893,-1.77170920372009,4.68784713745117,6.65109252929687,0.708683729171753,-1.98718738555908,-2.42293214797974,10.3333749771118,3.36624765396118,12.3014087677002,3.66791701316833,13.8289089202881,1.10612118244171,-8.68137550354004,-11.1186723709106,6.60320806503296,9.59596061706543,16.6827983856201,13.2878198623657,6.5553240776062,27.4375514984131,2.99754047393799,-5.2480902671814,-2.20266556739807,12.7850370407104,5.14753341674805,19.7521648406982,-1.10612118244171,3.84029960632324,6.18661737442017,4.18027639389038,-2.03507137298584,7.49385118484497,0.986411094665527,1.38863694667816,5.43483781814575,7.94874954223633,5.41568422317505,15.2367000579834,6.01902294158936,7.91044235229492,13.5607585906982,-5.47314500808716,1.88184249401093,-2.89219570159912,5.8131217956543,3.44765043258667,12.349292755127,-4.21858358383179,8.12113189697266,8.08761310577393,3.72058939933777,7.29273843765259,25.076868057251,3.39497804641724,-11.2862672805786,-0.612915635108948,2.2361843585968,9.39484786987305,16.5247802734375,2.74854350090027,7.48427438735962,19.0003852844238,4.065354347229,-3.41892004013062,0.565031588077545,4.92726707458496,6.1291561126709,19.0051727294922,-3.58172583580017,1.55144274234772,4.6830587387085,2.77727389335632,0.129286885261536,7.71890640258789,9.62947940826416,5.74608421325684,10.6733512878418,-0.651222884654999,6.1100025177002,2.83952331542969,2.06380176544189,12.0141038894653,11.9614315032959,5.04218864440918,-10.2998561859131,-2.66714072227478,4.60165548324585,9.37090587615967,30.0568084716797,-1.39342534542084,6.77559089660645,15.8160963058472,5.33428144454956,-3.96000957489014,1.46046304702759,17.5830173492432,12.3828115463257,18.1145305633545,-3.07415509223938,5.84185218811035,6.02381134033203,-0.517147541046143,1.66636443138123,2.77248549461365,3.27526783943176,-4.07493114471436,-2.19308876991272,5.35822343826294,10.1083192825317,4.53940629959106,1.11569797992706,8.4323787689209,17.5064029693604,2.97359848022461,-3.10288548469543,2.06859016418457,9.73482418060303,9.12669658660889,16.4385890960693,-0.148440510034561,1.38863694667816,8.73883628845215
running,-2.06380176544189,10.2998561859131,17.1137542724609,-0.0526724383234978,-7.82903957366943,-2.48039293289185,1.15400516986847,20.3267726898193,8.26478385925293,-1.6711528301239,4.8602294921875,14.839262008667,-0.967257499694824,1.81480491161346,2.63362193107605,1.85311210155487,9.52413463592529,11.2192287445068,-1.01514148712158,5.2672438621521,2.49954652786255,-0.244208574295044,8.65743350982666,22.0218677520752,2.26012635231018,-9.82580375671387,-0.852335810661316,6.39251852035522,11.5448408126831,19.7569522857666,4.2760443687439,7.93917274475098,23.0513744354248,1.20188927650452,-10.7212352752686,-3.79720377922058,21.7154102325439,6.86178207397461,27.5812034606934,-4.75967311859131,7.05331802368164,4.8410758972168,2.71981310844421,-2.81079268455505,11.0420579910278,5.68862342834473,-3.31357526779175,-2.1978771686554,-2.91134929656982,12.3253507614136,10.6637744903564,15.7203283309937,5.62637376785278,27.1981315612793,3.15555787086487,-13.0819177627563,-8.23605346679688,17.7362461090088,15.2223348617554,20.0203151702881,15.0355863571167,8.64785671234131,22.6683025360107,4.22816038131714,-9.15542697906494,-1.45088624954224,11.3820352554321,8.22168827056885,27.9211807250977,5.36301183700562,5.63116216659546,9.95030212402344,6.09084892272949,2.49475812911987,3.10767388343811,3.02148246765137,0.732625722885132,-1.12048637866974,7.508216381073,4.13718032836914,21.193473815918,2.3319525718689,5.8514289855957,6.3973069190979,-5.09964942932129,5.05655384063721,-3.227383852005,6.82826328277588,-4.13239192962646,6.67982292175293,-3.37582445144653,12.0955066680908,13.3357038497925,5.90410137176514,1.78607451915741,15.1696615219116,4.90332508087158,-7.6183500289917,-8.48505115509033,9.46188545227051,10.3285865783691,23.3817729949951,7.78594398498535,5.60722017288208,20.6284427642822,3.80199241638184,-4.09887313842773,-2.86825370788574,6.9814920425415,6.10042572021484,19.115306854248,-3.64876341819763,5.71735382080078,12.7084226608276,6.11957931518555,1.44130945205688,5.06613063812256,8.57603073120117,-4.18027639389038,-3.72058939933777,1.47482824325562,10.3668937683105,10.2136640548706,14.513650894165,9.48103904724121,26.173412322998,1.35990655422211,-14.2119808197021,-5.39653062820435,17.693151473999,10.2471828460693,28.2994632720947,1.19231247901917,10.6541976928711,21.4041633605957,3.55778384208679,-2.81079268455505,-2.24097275733948,12.9334774017334,4.63996267318726,3.3231520652771,-3.39976644515991,8.48505115509033,13.6900453567505,12.1146602630615,8.19295787811279,18.5981578826904,4.36702394485474,-13.1872625350952,-5.33428144454956
running,15.8256731033325,13.0436105728149,29.486988067627,1.09175598621368,1.5945383310318,6.58884286880493,0.775721371173859,4.08450794219971,22.1655197143555,2.61925673484802,0.0478840321302414,1.51313543319702,0.823605358600616,3.30878663063049,9.39484786987305,-4.22337198257446,3.12682747840881,13.6804685592651,1.35032975673676,-0.78529816865921,7.29752683639526,4.01268196105957,0.445321530103683,9.39484786987305,-6.87135887145996,3.36624765396118,5.27203226089478,-0.316034615039825,2.28885674476624,13.8911581039429,4.71657752990723,-3.61045622825623,-3.1890766620636,-4.95120906829834,11.0995187759399,9.34696388244629,8.58560752868652,7.22091245651245,33.6624755859375,7.85776996612549,-13.594277381897,0.512359142303467,18.8998279571533,9.11233139038086,26.7863292694092,-0.627280831336975,7.26400804519653,14.867992401123,2.48039293289185,-2.3511061668396,-2.75333189964294,20.3076190948486,4.8602294921875,11.8512983322144,-2.46123933792114,5.53539419174194,6.5553240776062,15.3372564315796,7.80509757995605,22.1032695770264,5.4444146156311,-11.3149976730347,-1.6711528301239,6.50265169143677,8.15943908691406,28.4287509918213,0.220266550779343,3.01190567016602,8.70531749725342,0.100556470453739,5.01345825195312,6.78995609283447,4.39096593856812,-3.60087943077087,-7.3501992225647,-2.6623523235321,12.4067535400391,8.21689987182617,6.71334171295166,6.65588092803955,22.069751739502,1.84832370281219,-6.32069253921509,-3.49074602127075,15.9645366668701,4.68784713745117,30.8325290679932,-1.83874690532684,6.09563732147217,8.87769985198975,1.82917010784149,1.76692080497742,10.8696756362915,4.61602067947388,-1.41736745834351,-0.292092621326447,-6.60320806503296,6.55053567886353,8.59997272491455,0.900219857692719,0.277727395296097,31.9673805236816,2.94965648651123,-10.7451772689819,-5.72693061828613,2.70544791221619,7.00543403625488,28.447904586792,-0.0718260481953621,5.64552783966064,19.6133003234863,7.64229202270508,-4.30477476119995,-6.20098257064819,2.72460150718689,8.45632076263428,13.4649906158447,-3.01190567016602,5.54018259048462,6.43561410903931,-1.5179238319397,3.94085597991943,12.90953540802,6.95276165008545,0.550666391849518,6.21534776687622,-7.48906278610229,5.13316822052002,13.4745674133301,11.2192287445068,-0.196324542164803,22.1367893218994,3.74931979179382,-5.89931297302246,-3.01669406890869,13.8480625152588,7.55610036849976,34.5818481445312,-2.42293214797974,4.92726707458496,8.30787944793701,1.14442837238312,1.55623114109039,3.97437477111816,4.6830587387085,1.31202256679535,4.42927312850952,3.92649078369141,4.8602294921875,11.8943939208984
running,15.8256731033325,13.0436105728149,29.486988067627,1.09175598621368,1.5945383310318,6.58884286880493,0.775721371173859,4.08450794219971,22.1655197143555,2.61925673484802,0.0478840321302414,1.51313543319702,0.823605358600616,3.30878663063049,9.39484786987305,-4.22337198257446,3.12682747840881,13.6804685592651,1.35032975673676,-0.78529816865921,7.29752683639526,4.01268196105957,0.445321530103683,9.39484786987305,-6.87135887145996,3.36624765396118,5.27203226089478,-0.316034615039825,2.28885674476624,13.8911581039429,4.71657752990723,-3.61045622825623,-3.1890766620636,-4.95120906829834,11.0995187759399,9.34696388244629,8.58560752868652,7.22091245651245,33.6624755859375,7.85776996612549,-13.594277381897,0.512359142303467,18.8998279571533,9.11233139038086,26.7863292694092,-0.627280831336975,7.26400804519653,14.867992401123,2.48039293289185,-2.3511061668396,-2.75333189964294,20.3076190948486,4.8602294921875,11.8512983322144,-2.46123933792114,5.53539419174194,6.5553240776062,15.3372564315796,7.80509757995605,22.1032695770264,5.4444146156311,-11.3149976730347,-1.6711528301239,6.50265169143677,8.15943908691406,28.4287509918213,0.220266550779343,3.01190567016602,8.70531749725342,0.100556470453739,5.01345825195312,6.78995609283447,4.39096593856812,-3.60087943077087,-7.3501992225647,-2.6623523235321,12.4067535400391,8.21689987182617,6.71334171295166,6.65588092803955,22.069751739502,1.84832370281219,-6.32069253921509,-3.49074602127075,15.9645366668701,4.68784713745117,30.8325290679932,-1.83874690532684,6.09563732147217,8.87769985198975,1.82917010784149,1.76692080497742,10.8696756362915,4.61602067947388,-1.41736745834351,-0.292092621326447,-6.60320806503296,6.55053567886353,8.59997272491455,0.900219857692719,0.277727395296097,31.9673805236816,2.94965648651123,-10.7451772689819,-5.72693061828613,2.70544791221619,7.00543403625488,28.447904586792,-0.0718260481953621,5.64552783966064,19.6133003234863,7.64229202270508,-4.30477476119995,-6.20098257064819,2.72460150718689,8.45632076263428,13.4649906158447,-3.01190567016602,5.54018259048462,6.43561410903931,-1.5179238319397,3.94085597991943,12.90953540802,6.95276165008545,0.550666391849518,6.21534776687622,-7.48906278610229,5.13316822052002,13.4745674133301,11.2192287445068,-0.196324542164803,22.1367893218994,3.74931979179382,-5.89931297302246,-3.01669406890869,13.8480625152588,7.55610036849976,34.5818481445312,-2.42293214797974,4.92726707458496,8.30787944793701,1.14442837238312,1.55623114109039,3.97437477111816,4.6830587387085,1.31202256679535,4.42927312850952,3.92649078369141,4.8602294921875,11.8943939208984
running,-4.74530792236328,2.40377855300903,7.29752683639526,-5.45877981185913,1.11569797992706,8.01578712463379,-6.65588092803955,-2.43250894546509,14.6046304702759,-1.69509482383728,-2.88261890411377,2.45166254043579,5.99508094787598,3.65355181694031,11.9039707183838,-0.809240162372589,4.07493114471436,15.0738935470581,-1.14921677112579,3.7349545955658,0.814028561115265,2.21224236488342,12.0907182693481,17.5207672119141,1.79565131664276,-10.5344877243042,-6.74207210540771,-3.30878663063049,-5.67904663085937,-8.52335834503174,15.7203283309937,13.9821376800537,23.8079414367676,2.74375510215759,11.2862672805786,7.53215837478638,19.3786678314209,1.47003984451294,15.9980554580688,2.94965648651123,-15.7682123184204,-7.08683681488037,10.0125513076782,11.7315883636475,14.676456451416,0.617704033851624,7.41244840621948,6.32548093795776,0.445321530103683,2.41335535049438,-4.05098915100098,11.1378259658813,0.339976638555527,4.57771348953247,-5.11401462554932,7.7572135925293,9.27513694763184,8.06367111206055,-4.40533113479614,19.0291156768799,2.59531474113464,-3.81635761260986,-3.29920983314514,3.93606758117676,8.0924015045166,10.8648872375488,6.59841966629028,11.0947303771973,13.2112045288086,5.25766706466675,-3.7732617855072,-0.153228908777237,10.4147777557373,2.90656089782715,20.9205341339111,-2.25054955482483,4.46758031845093,10.9415016174316,3.09809708595276,-1.62805712223053,-0.900219857692719,23.3626194000244,7.81467437744141,10.6877164840698,-4.08450794219971,8.85375785827637,5.46835660934448,4.92247867584229,1.90099620819092,2.14520478248596,10.3908357620239,3.78762698173523,-0.378283858299255,-2.61446833610535,10.3190097808838,6.9814920425415,8.44195556640625,2.96402168273926,12.6222314834595,0.656011283397675,-3.74931979179382,-4.39096593856812,0.330399841070175,9.89284133911133,11.1713447570801,7.15387487411499,6.73249530792236,12.8377094268799,4.94642066955566,-9.10754299163818,-0.608127236366272,4.97993946075439,5.71735382080078,35.4246101379395,4.63517427444458,5.77002620697021,18.6939277648926,-0.134075298905373,-5.73171901702881,0.0814028605818748,9.12190818786621,-0.0861912593245506,24.6028175354004,3.17471146583557,8.20732307434082,11.3820352554321,-3.66791701316833,3.34709405899048,3.26090264320374,5.61679697036743,-4.67348194122314,1.84832370281219,-2.47081613540649,6.85220527648926,15.7394819259644,5.60722017288208,2.79642748832703,29.4343166351318,0.905008256435394,-10.0652236938477,-2.42772054672241,2.38941335678101,10.2567596435547,24.5980281829834,-0.766144514083862,2.29364514350891,12.0907182693481,0.651222884654999,0.881066203117371,0.517147541046143
walking,-0.215478152036667,1.85790050029755,9.30386734008789,-2.05422496795654,3.62003302574158,7.37414121627808,-4.64475107192993,1.85790050029755,11.6884927749634,-1.42215585708618,-1.9632453918457,5.35822343826294,-1.47003984451294,3.27047944068909,6.4164605140686,1.23540806770325,1.61848032474518,-0.565031588077545,6.81389808654785,-7.65186882019043,1.27371525764465,7.9152307510376,-13.7618713378906,3.7349545955658,12.4259071350098,-15.21275806427,9.43794345855713,12.2247934341431,-7.80988597869873,11.4155540466309,18.7465991973877,-5.17626428604126,8.14986228942871,9.42836666107178,-9.87368774414063,2.60010313987732,8.18816947937012,-11.8848171234131,2.16435837745667,6.45476770401001,-10.6781396865845,1.29765737056732,0.450109928846359,-7.66144561767578,-2.06859016418457,2.40377855300903,-8.54251194000244,0.746990919113159,4.97036266326904,-10.7499656677246,0.737414121627808,8.91121864318848,-15.6054067611694,-0.0574608407914639,16.5726642608643,-14.7626476287842,5.20978307723999,12.7275762557983,-9.30865573883057,1.24019646644592,9.95030212402344,-9.4044246673584,0.636857628822327,6.80910968780518,-13.7906017303467,0.268150597810745,0.780509769916534,-8.50899314880371,-0.952892303466797,2.34631776809692,-12.4402723312378,1.72382521629333,4.44363832473755,-12.6653270721436,1.89620769023895,11.7938375473022,-10.0556468963623,2.6240451335907,5.96635055541992,-16.8791217803955,-6.35421133041382,0.924161851406097,-8.29830265045166,-2.64798712730408,-1.02471828460693,-13.2016277313232,-2.782062292099,6.39251852035522,-17.1472721099854,1.27371525764465,9.87368774414063,-11.0755767822266,2.24097275733948,11.2575359344482,-7.83861637115479,-1.95845699310303,4.40533113479614,-15.9549598693848,-4.71178913116455,-1.17794728279114,-8.96867942810059,-1.92972660064697,1.25456166267395,-13.4027414321899,1.95366859436035,8.82502746582031,-16.7737770080566,0.205901339650154,12.9286890029907,-8.13549709320068,-1.20667767524719,7.67581081390381,-18.9477119445801,-2.55700731277466,2.39420175552368,-12.2870435714722,-2.38462495803833,-7.64229202270508,-10.7116584777832,-6.83784008026123,9.13148498535156,-22.1319999694824,-0.0766144543886185,8.71968269348145,-9.33738708496094,-2.44208574295044,12.1721210479736,-11.3149976730347,0.421379506587982,6.67503452301025,-17.3388080596924,0.0478840321302414,-1.25456166267395,-7.53215837478638,-3.00711727142334,3.26090264320374,-13.785813331604,-0.72304892539978,15.6485023498535,-14.9350299835205,1.66636443138123,12.3061971664429,-8.40364837646484,-1.91536140441895,8.00621032714844,-17.8942642211914,-1.19231247901917,0.933738648891449,-10.9415016174316,-1.96803379058838
walking,-0.976834297180176,-10.596736907959,-0.407014280557632,10.5392761230469,-15.5144271850586,-1.62326872348785,11.4394960403442,-8.66222190856934,-1.94888019561768,8.42280197143555,-12.8568630218506,0.957680702209473,5.43962621688843,-14.4370365142822,0.617704033851624,1.55144274234772,-7.74763679504395,-2.32237553596497,4.65911674499512,-12.4067535400391,-1.8674772977829,14.1640968322754,-12.8424978256226,-0.148440510034561,15.5335807800293,-6.67982292175293,2.90177249908447,6.54095888137817,-15.2797956466675,0.263362199068069,-6.3973069190979,-8.85854625701904,-8.87769985198975,1.87705409526825,-12.7515182495117,-2.02549457550049,9.26077175140381,-14.6189956665039,-0.756567716598511,14.3316917419434,-9.90720653533936,0.0861912593245506,5.99508094787598,-14.7099752426147,0.679953277111053,-0.0718260481953621,-10.75954246521,-0.565031588077545,3.40455484390259,-10.046070098877,-1.27850365638733,7.6375036239624,-13.9677724838257,-0.651222884654999,12.5360403060913,-6.38773012161255,-1.59932672977448,12.1194486618042,-11.9183359146118,3.31357526779175,4.72615432739258,-10.4291429519653,1.5945383310318,2.42772054672241,-5.72214221954346,1.21625447273254,6.96712684631348,-11.1186723709106,-0.881066203117371,12.018892288208,-11.6693391799927,1.11569797992706,9.91199493408203,-9.47625064849854,-0.363918662071228,7.03416442871094,-11.3820352554321,-0.617704033851624,2.03507137298584,-9.7396125793457,-2.84431171417236,4.13239192962646,-11.5352640151978,-1.58974993228912,13.7618713378906,-11.5448408126831,5.00388145446777,11.9853734970093,-6.33026933670044,-1.44609785079956,11.9327011108398,-11.2335939407349,-6.96712684631348,2.77248549461365,-7.1921820640564,-0.66079968214035,-1.32638776302338,-7.70932960510254,1.37906014919281,7.20654726028442,-15.389928817749,-0.694318473339081,14.3173265457153,-13.7953901290894,5.65031623840332,9.47625064849854,-4.87459468841553,2.83952331542969,7.30231523513794,-15.729905128479,0.277727395296097,0.22505496442318,-12.1481790542603,-2.0829553604126,1.55623114109039,-10.405200958252,-3.24174904823303,9.24640655517578,-15.4090824127197,2.2361843585968,14.2502889633179,-9.03092861175537,0.359130263328552,6.33984613418579,-16.1225547790527,2.27449154853821,0.962469100952148,-10.8984060287476,-1.87705409526825,2.12605118751526,-10.074800491333,-0.502782344818115,9.45709705352783,-16.2183227539062,-0.933738648891449,11.5639944076538,-11.5879364013672,-1.12048637866974,4.99430465698242,-12.4306955337524,0.474051922559738,4.8410758972168,-13.7906017303467,-0.531512796878815,-1.14921677112579,-9.49540424346924,0.430956304073334,7.97269153594971,-13.8959465026855,-1.71903681755066
walking,14.4322481155396,-8.87291145324707,-0.517147541046143,7.36456441879272,-11.0324811935425,2.20745396614075,4.62080907821655,-12.4354839324951,-1.63763391971588,-0.938527047634125,-9.58638381958008,0.761356115341187,10.1083192825317,-13.3117618560791,-2.14041638374329,9.897629737854,-6.64151573181152,-2.05422496795654,10.3860473632813,-12.5839242935181,0.555454790592194,5.06613063812256,-11.8800287246704,-0.287304192781448,-2.47081613540649,-9.45230865478516,-2.49954652786255,7.20175886154175,-14.2694425582886,-1.56101953983307,9.83059215545654,-9.45709705352783,-1.18273568153381,10.2184524536133,-10.7116584777832,1.13963997364044,6.2392897605896,-13.268666267395,-0.426167905330658,-0.766144514083862,-8.66222190856934,-1.30723416805267,4.22816038131714,-11.6118783950806,-2.10689759254456,9.02135181427002,-14.8967227935791,0.474051922559738,12.5887126922607,-7.97269153594971,0.339976638555527,7.89607715606689,-14.4801321029663,-0.134075298905373,-2.08774399757385,-10.4578733444214,-0.158017307519913,2.66714072227478,-11.6262435913086,-1.51313543319702,9.15542697906494,-13.4745674133301,-0.842759013175964,11.6597623825073,-9.14585018157959,0.258573770523071,10.6350440979004,-14.5567464828491,1.65678763389587,3.17471146583557,-12.4163303375244,-0.488417148590088,-1.14442837238312,-6.45476770401001,-2.39899015426636,9.50976943969727,-16.0555171966553,0.545877993106842,9.95987892150879,-10.582371711731,0.191536128520966,14.6094188690186,-11.2383823394775,0.450109928846359,8.73883628845215,-15.8496150970459,0.129286885261536,2.46123933792114,-2.02070617675781,3.35188245773315,3.05021286010742,1.15400516986847,8.47547435760498,2.99754047393799,2.92092609405518,9.04050540924072,4.18506479263306,0.177170932292938,3.8690299987793,7.20175886154175,-11.4538612365723,3.07894349098206,14.5998420715332,-1.49877023696899,3.54820680618286,1.82438170909882,-3.42370843887329,2.44208574295044,2.16435837745667,-10.8600988388062,-0.914585053920746,19.8144130706787,-19.3403606414795,3.31836366653442,13.3644342422485,-7.53694677352905,3.15076947212219,9.98382091522217,-16.0219974517822,-0.478840351104736,3.58172583580017,-11.841721534729,-2.22181916236877,-1.84353530406952,-10.6494092941284,-0.727837324142456,9.37090587615967,-15.3133144378662,-0.244208574295044,11.650185585022,-9.92157173156738,0.392649084329605,9.52413463592529,-11.3293628692627,0.837970614433289,6.68939971923828,-14.4226713180542,-1.44609785079956,4.13718032836914,-9.05965900421143,-2.00155258178711,3.57214903831482,-11.2575359344482,-1.57059633731842,14.6142072677612,-16.3619747161865,5.02782344818115,14.0874824523926,-6.44997930526733,3.09809708595276
walking,7.60398483276367,-16.1943798065186,0.636857628822327,2.86346530914307,-12.0859298706055,0.857124209403992,1.76213240623474,-10.3142213821411,-0.172382518649101,8.39407157897949,-14.9781255722046,-0.325611442327499,13.7091989517212,-9.7396125793457,0.746990919113159,5.08528423309326,-13.7762365341187,4.84586429595947,5.26245546340942,-12.746729850769,0.837970614433289,0.952892303466797,-10.4578733444214,3.21780705451965,7.74284839630127,-13.7475061416626,0.0335188247263432,14.1018476486206,-8.22168827056885,-0.22505496442318,7.74284839630127,-11.4347076416016,1.87226569652557,6.79474449157715,-12.9143238067627,0.670376479625702,-0.296881020069122,-8.2504186630249,-3.67749381065369,3.15555787086487,-10.0508584976196,-2.44208574295044,14.3556337356567,-15.6772327423096,3.38061285018921,11.1378259658813,-6.24886655807495,0.445321530103683,8.65743350982666,-13.1202249526978,0.110133275389671,3.12203907966614,-13.4027414321899,-0.689530074596405,0.871489405632019,-8.20732307434082,-1.99676418304443,15.8352499008179,-10.9079828262329,-0.325611442327499,18.3347969055176,-4.35265874862671,4.57292509078979,9.27034854888916,-10.6158905029297,-0.181959331035614,7.26879644393921,-9.41400146484375,-3.47638082504272,0.679953277111053,2.32237553596497,9.98860931396484,1.23540806770325,-0.090979665517807,10.41956615448,-0.804451763629913,2.25054955482483,10.3573169708252,1.51313543319702,1.09654438495636,9.93593692779541,2.05422496795654,1.05823719501495,5.34385824203491,-2.03507137298584,0.0622492432594299,6.77080249786377,-3.30878663063049,-0.430956304073334,11.5975131988525,-0.53630119562149,1.29286897182465,9.84974575042725,-1.77170920372009,-0.588973641395569,10.9079828262329,-2.29843354225159,-0.588973641395569,9.89284133911133,-0.512359142303467,0.426167905330658,10.6925048828125,0.574608385562897,0.100556470453739,10.223240852356,-0.378283858299255,2.10210919380188,8.24084186553955,-1.35032975673676,2.54264211654663,11.0612115859985,-0.790086567401886,0.952892303466797,12.1386022567749,2.5091233253479,3.76847338676453,10.5296993255615,1.38384854793549,-4.86501789093018,-7.48427438735962,11.4203424453735,-20.8918037414551,1.51313543319702,9.64863300323486,-10.6972932815552,-1.03908348083496,11.4778032302856,-12.5312519073486,-1.05344879627228,6.85699367523193,-13.8289089202881,-1.99197578430176,0.100556470453739,-7.17781686782837,-2.04943656921387,7.72369480133057,-13.8241205215454,0.708683729171753,12.1146602630615,-16.237476348877,2.27449154853821,10.2854900360107,-7.58961915969849,3.07415509223938,12.9669961929321,-15.6915979385376,-6.87614727020264,4.27125597000122,-9.85453414916992,-5.77481460571289
walking,7.60398483276367,-16.1943798065186,0.636857628822327,2.86346530914307,-12.0859298706055,0.857124209403992,1.76213240623474,-10.3142213821411,-0.172382518649101,8.39407157897949,-14.9781255722046,-0.325611442327499,13.7091989517212,-9.7396125793457,0.746990919113159,5.08528423309326,-13.7762365341187,4.84586429595947,5.26245546340942,-12.746729850769,0.837970614433289,0.952892303466797,-10.4578733444214,3.21780705451965,7.74284839630127,-13.7475061416626,0.0335188247263432,14.1018476486206,-8.22168827056885,-0.22505496442318,7.74284839630127,-11.4347076416016,1.87226569652557,6.79474449157715,-12.9143238067627,0.670376479625702,-0.296881020069122,-8.2504186630249,-3.67749381065369,3.15555787086487,-10.0508584976196,-2.44208574295044,14.3556337356567,-15.6772327423096,3.38061285018921,11.1378259658813,-6.24886655807495,0.445321530103683,8.65743350982666,-13.1202249526978,0.110133275389671,3.12203907966614,-13.4027414321899,-0.689530074596405,0.871489405632019,-8.20732307434082,-1.99676418304443,15.8352499008179,-10.9079828262329,-0.325611442327499,18.3347969055176,-4.35265874862671,4.57292509078979,9.27034854888916,-10.6158905029297,-0.181959331035614,7.26879644393921,-9.41400146484375,-3.47638082504272,0.679953277111053,2.32237553596497,9.98860931396484,1.23540806770325,-0.090979665517807,10.41956615448,-0.804451763629913,2.25054955482483,10.3573169708252,1.51313543319702,1.09654438495636,9.93593692779541,2.05422496795654,1.05823719501495,5.34385824203491,-2.03507137298584,0.0622492432594299,6.77080249786377,-3.30878663063049,-0.430956304073334,11.5975131988525,-0.53630119562149,1.29286897182465,9.84974575042725,-1.77170920372009,-0.588973641395569,10.9079828262329,-2.29843354225159,-0.588973641395569,9.89284133911133,-0.512359142303467,0.426167905330658,10.6925048828125,0.574608385562897,0.100556470453739,10.223240852356,-0.378283858299255,2.10210919380188,8.24084186553955,-1.35032975673676,2.54264211654663,11.0612115859985,-0.790086567401886,0.952892303466797,12.1386022567749,2.5091233253479,3.76847338676453,10.5296993255615,1.38384854793549,-4.86501789093018,-7.48427438735962,11.4203424453735,-20.8918037414551,1.51313543319702,9.64863300323486,-10.6972932815552,-1.03908348083496,11.4778032302856,-12.5312519073486,-1.05344879627228,6.85699367523193,-13.8289089202881,-1.99197578430176,0.100556470453739,-7.17781686782837,-2.04943656921387,7.72369480133057,-13.8241205215454,0.708683729171753,12.1146602630615,-16.237476348877,2.27449154853821,10.2854900360107,-7.58961915969849,3.07415509223938,12.9669961929321,-15.6915979385376,-6.87614727020264,4.27125597000122,-9.85453414916992,-5.77481460571289
walking,-1.49877023696899,-9.35175228118896,-5.03261184692383,6.9814920425415,-20.0729866027832,-0.876277804374695,9.35175228118896,-13.948618888855,2.92571449279785,12.4881563186646,-4.03662395477295,3.72058939933777,14.3795757293701,-14.64772605896,-7.78594398498535,4.82671070098877,-7.65186882019043,-3.39018964767456,-4.4532151222229,-9.42836666107178,-4.8602294921875,12.1146602630615,-19.9197578430176,-3.38540124893188,11.4394960403442,-9.47146224975586,-0.469263523817062,13.1776857376099,-12.1577558517456,-0.627280831336975,6.02381134033203,-15.8065195083618,-0.699106872081757,-0.895431458950043,-9.96945571899414,-3.24653744697571,5.73171901702881,-14.7099752426147,-3.10767388343811,13.2159929275513,-14.15452003479,0.330399841070175,17.9182052612305,-6.22492456436157,-0.119710087776184,8.71010589599609,-17.3388080596924,-0.0430956296622753,2.8969841003418,-8.4323787689209,-0.220266550779343,5.31033945083618,0.335188239812851,7.25921964645386,1.22104287147522,3.22259545326233,8.14507389068604,0.387860685586929,3.26569104194641,12.2008514404297,2.41814374923706,1.29765737056732,5.14274501800537,3.76368498802185,-5.08049583435059,-1.01992988586426,8.9255838394165,-19.7042808532715,0.708683729171753,10.8505220413208,-12.033257484436,-1.80043971538544,14.1832504272461,-9.64863300323486,2.72938990592957,7.44596719741821,-17.9852428436279,-0.138863697648048,5.10443782806396,-12.0141038894653,-0.718260526657104,0.292092621326447,-4.49152231216431,-1.15879356861115,8.35576438903809,-15.227123260498,-0.876277804374695,15.389928817749,-8.29351425170898,6.56011247634888,10.9606552124023,-8.4515323638916,3.77805018424988,7.04374122619629,-12.3397159576416,1.26892685890198,5.78439140319824,-4.87459468841553,7.89128875732422,3.93606758117676,2.53785371780396,5.59764337539673,3.46680402755737,4.75488471984863,9.61511421203613,3.43807363510132,1.36469495296478,9.14106178283691,2.46602773666382,0.828393816947937,3.7349545955658,8.42280197143555,-12.2678899765015,4.75967311859131,12.2678899765015,-13.0292453765869,1.46525144577026,12.4690027236938,-8.75798988342285,5.31991624832153,7.26400804519653,-14.0108680725098,3.76368498802185,3.84987640380859,-4.99430465698242,5.78439140319824,1.51313543319702,0.493205547332764,3.65834021568298,2.9352912902832,0.378283858299255,8.70052909851074,1.15879356861115,2.08774399757385,11.487380027771,2.26491475105286,0.967257499694824,10.7930612564087,2.22660756111145,2.02070617675781,8.00621032714844,1.45567464828491,1.58496153354645,9.4235782623291,0.397437483072281,0.177170932292938,8.51378154754639,3.0550012588501,0.665588080883026,8.39885997772217
walking,-1.49877023696899,-9.35175228118896,-5.03261184692383,6.9814920425415,-20.0729866027832,-0.876277804374695,9.35175228118896,-13.948618888855,2.92571449279785,12.4881563186646,-4.03662395477295,3.72058939933777,14.3795757293701,-14.64772605896,-7.78594398498535,4.82671070098877,-7.65186882019043,-3.39018964767456,-4.4532151222229,-9.42836666107178,-4.8602294921875,12.1146602630615,-19.9197578430176,-3.38540124893188,11.4394960403442,-9.47146224975586,-0.469263523817062,13.1776857376099,-12.1577558517456,-0.627280831336975,6.02381134033203,-15.8065195083618,-0.699106872081757,-0.895431458950043,-9.96945571899414,-3.24653744697571,5.73171901702881,-14.7099752426147,-3.10767388343811,13.2159929275513,-14.15452003479,0.330399841070175,17.9182052612305,-6.22492456436157,-0.119710087776184,8.71010589599609,-17.3388080596924,-0.0430956296622753,2.8969841003418,-8.4323787689209,-0.220266550779343,5.31033945083618,0.335188239812851,7.25921964645386,1.22104287147522,3.22259545326233,8.14507389068604,0.387860685586929,3.26569104194641,12.2008514404297,2.41814374923706,1.29765737056732,5.14274501800537,3.76368498802185,-5.08049583435059,-1.01992988586426,8.9255838394165,-19.7042808532715,0.708683729171753,10.8505220413208,-12.033257484436,-1.80043971538544,14.1832504272461,-9.64863300323486,2.72938990592957,7.44596719741821,-17.9852428436279,-0.138863697648048,5.10443782806396,-12.0141038894653,-0.718260526657104,0.292092621326447,-4.49152231216431,-1.15879356861115,8.35576438903809,-15.227123260498,-0.876277804374695,15.389928817749,-8.29351425170898,6.56011247634888,10.9606552124023,-8.4515323638916,3.77805018424988,7.04374122619629,-12.3397159576416,1.26892685890198,5.78439140319824,-4.87459468841553,7.89128875732422,3.93606758117676,2.53785371780396,5.59764337539673,3.46680402755737,4.75488471984863,9.61511421203613,3.43807363510132,1.36469495296478,9.14106178283691,2.46602773666382,0.828393816947937,3.7349545955658,8.42280197143555,-12.2678899765015,4.75967311859131,12.2678899765015,-13.0292453765869,1.46525144577026,12.4690027236938,-8.75798988342285,5.31991624832153,7.26400804519653,-14.0108680725098,3.76368498802185,3.84987640380859,-4.99430465698242,5.78439140319824,1.51313543319702,0.493205547332764,3.65834021568298,2.9352912902832,0.378283858299255,8.70052909851074,1.15879356861115,2.08774399757385,11.487380027771,2.26491475105286,0.967257499694824,10.7930612564087,2.22660756111145,2.02070617675781,8.00621032714844,1.45567464828491,1.58496153354645,9.4235782623291,0.397437483072281,0.177170932292938,8.51378154754639,3.0550012588501,0.665588080883026,8.39885997772217
jumping,-8.50420475006104,1.84832370281219,8.78672027587891,-7.55610036849976,0.454898327589035,5.63595056533813,-0.383072257041931,1.52750062942505,3.3423056602478,2.24097275733948,6.33984613418579,20.4177513122559,0.584185242652893,-0.804451763629913,4.065354347229,0.153228908777237,0.181959331035614,0.713472127914429,3.97437477111816,13.2064161300659,17.2478294372559,0.84754741191864,0.411802679300308,-6.06690692901611,-0.550666391849518,6.45955610275269,3.87860679626465,0.679953277111053,3.95522117614746,6.08606052398682,-0.177170932292938,-3.06457805633545,-1.50355863571167,22.2517108917236,20.6236534118652,33.0782890319824,-2.04943656921387,-3.48595762252808,-2.27449154853821,0.488417148590088,-1.16837048530579,0.66079968214035,2.64798712730408,19.8718738555908,31.431079864502,-2.79642748832703,-2.94486808776855,-3.13161587715149,-2.56658411026001,2.45166254043579,2.34631776809692,6.75164890289307,12.717999458313,13.5416049957275,-1.70946002006531,0.263362199068069,-1.46525144577026,2.54264211654663,8.24563026428223,9.59117221832275,0.718260526657104,2.0973207950592,9.27034854888916,0.014365210197866,-0.0430956296622753,-1.51313543319702,15.375563621521,6.34463453292847,30.3967838287354,0.12449848651886,0.301669418811798,-0.167594119906425,-0.172382518649101,-1.84832370281219,0.0861912593245506,14.4657669067383,12.2870435714722,34.7542304992676,-1.99676418304443,-2.18351197242737,-2.95444488525391,-0.0430956296622753,-0.502782344818115,0.416591107845306,14.1640968322754,12.9765729904175,40.5338363647461,-1.15400516986847,-0.335188239812851,-7.10599040985107,0.18674772977829,0.258573770523071,-0.234631761908531,11.3197860717773,7.87213516235352,21.8877925872803,0.84754741191864,-0.584185242652893,-2.81558108329773,-0.670376479625702,3.73016619682312,2.02070617675781,3.96479797363281,4.05577754974365,18.5071792602539,-1.14921677112579,-2.18351197242737,-1.77170920372009,2.04464817047119,8.81545066833496,12.5360403060913,3.36624765396118,0.0,7.33104562759399,-0.675164878368378,-3.09809708595276,-6.59363126754761,8.82023906707764,8.52335834503174,32.1541290283203,-0.991199493408203,-2.6240451335907,2.07816696166992,-0.928950250148773,-2.41335535049438,0.220266550779343,14.6429376602173,15.193603515625,36.8419761657715,-2.18830037117004,-3.94085597991943,-5.1379566192627,-0.387860685586929,-2.32237553596497,-1.03908348083496,5.73650741577148,10.3429517745972,39.7676887512207,-1.60890352725983,-0.737414121627808,-2.87304210662842,-0.756567716598511,-0.172382518649101,2.15478157997131,3.92170238494873,7.89607715606689,17.8032836914063,-0.277727395296097,-0.0718260481953621,0.00478840339928865
jumping,-8.50420475006104,1.84832370281219,8.78672027587891,-7.55610036849976,0.454898327589035,5.63595056533813,-0.383072257041931,1.52750062942505,3.3423056602478,2.24097275733948,6.33984613418579,20.4177513122559,0.584185242652893,-0.804451763629913,4.065354347229,0.153228908777237,0.181959331035614,0.713472127914429,3.97437477111816,13.2064161300659,17.2478294372559,0.84754741191864,0.411802679300308,-6.06690692901611,-0.550666391849518,6.45955610275269,3.87860679626465,0.679953277111053,3.95522117614746,6.08606052398682,-0.177170932292938,-3.06457805633545,-1.50355863571167,22.2517108917236,20.6236534118652,33.0782890319824,-2.04943656921387,-3.48595762252808,-2.27449154853821,0.488417148590088,-1.16837048530579,0.66079968214035,2.64798712730408,19.8718738555908,31.431079864502,-2.79642748832703,-2.94486808776855,-3.13161587715149,-2.56658411026001,2.45166254043579,2.34631776809692,6.75164890289307,12.717999458313,13.5416049957275,-1.70946002006531,0.263362199068069,-1.46525144577026,2.54264211654663,8.24563026428223,9.59117221832275,0.718260526657104,2.0973207950592,9.27034854888916,0.014365210197866,-0.0430956296622753,-1.51313543319702,15.375563621521,6.34463453292847,30.3967838287354,0.12449848651886,0.301669418811798,-0.167594119906425,-0.172382518649101,-1.84832370281219,0.0861912593245506,14.4657669067383,12.2870435714722,34.7542304992676,-1.99676418304443,-2.18351197242737,-2.95444488525391,-0.0430956296622753,-0.502782344818115,0.416591107845306,14.1640968322754,12.9765729904175,40.5338363647461,-1.15400516986847,-0.335188239812851,-7.10599040985107,0.18674772977829,0.258573770523071,-0.234631761908531,11.3197860717773,7.87213516235352,21.8877925872803,0.84754741191864,-0.584185242652893,-2.81558108329773,-0.670376479625702,3.73016619682312,2.02070617675781,3.96479797363281,4.05577754974365,18.5071792602539,-1.14921677112579,-2.18351197242737,-1.77170920372009,2.04464817047119,8.81545066833496,12.5360403060913,3.36624765396118,0.0,7.33104562759399,-0.675164878368378,-3.09809708595276,-6.59363126754761,8.82023906707764,8.52335834503174,32.1541290283203,-0.991199493408203,-2.6240451335907,2.07816696166992,-0.928950250148773,-2.41335535049438,0.220266550779343,14.6429376602173,15.193603515625,36.8419761657715,-2.18830037117004,-3.94085597991943,-5.1379566192627,-0.387860685586929,-2.32237553596497,-1.03908348083496,5.73650741577148,10.3429517745972,39.7676887512207,-1.60890352725983,-0.737414121627808,-2.87304210662842,-0.756567716598511,-0.172382518649101,2.15478157997131,3.92170238494873,7.89607715606689,17.8032836914063,-0.277727395296097,-0.0718260481953621,0.00478840339928865
jumping,-1.05823719501495,2.07337856292725,8.17859268188477,-3.85945320129395,-2.81558108329773,8.4323787689209,-9.76355457305908,5.67904663085937,30.8325290679932,-0.0191536135971546,0.670376479625702,5.40131902694702,0.555454790592194,-0.579396784305573,-0.383072257041931,-2.39420175552368,9.84495735168457,34.5770606994629,-3.81156921386719,-1.87705409526825,-7.67581081390381,-0.244208574295044,-1.41257905960083,1.91057300567627,-0.545877993106842,12.895170211792,31.7566909790039,-0.263362199068069,-0.641646027565002,-5.75087261199951,-0.0718260481953621,0.814028561115265,2.57137250900269,2.23139595985413,6.52659368515015,12.9382658004761,-0.59855043888092,0.603338837623596,-0.282515794038773,3.07415509223938,11.2431707382202,18.9141941070557,3.62960982322693,0.560243189334869,5.95198535919189,1.44609785079956,-2.17393517494202,2.8012158870697,-0.158017307519913,15.389928817749,28.1366577148437,0.622492432594299,0.253785371780396,-0.0814028605818748,0.689530074596405,1.03429508209229,-0.378283858299255,-0.770932972431183,13.2782430648804,26.5852165222168,-1.14921677112579,-0.359130263328552,-2.13083958625793,-0.53630119562149,4.67348194122314,6.50744009017944,-3.50989961624146,3.49074602127075,11.1330375671387,1.68072962760925,-0.12449848651886,-1.07739078998566,4.84586429595947,15.6149835586548,20.3076190948486,-0.464475125074387,-0.172382518649101,-2.80600428581238,1.88184249401093,0.541089594364166,1.33117616176605,6.48349809646606,16.237476348877,16.9557361602783,-0.718260526657104,0.541089594364166,-4.33350515365601,4.03183555603027,4.98951625823975,9.90720653533936,-1.06302559375763,2.6623523235321,16.6923751831055,0.167594119906425,0.114921681582928,0.837970614433289,-0.962469100952148,11.7411651611328,29.0368785858154,-0.842759013175964,0.0574608407914639,-4.46279191970825,0.727837324142456,1.98718738555908,3.28005623817444,2.83952331542969,11.4442844390869,16.8360271453857,0.775721371173859,-0.976834297180176,-1.77649760246277,2.45166254043579,13.977349281311,9.35654067993164,-0.407014280557632,1.41257905960083,10.3668937683105,0.0861912593245506,0.158017307519913,-0.497993946075439,0.31124621629715,17.3244438171387,22.7066097259521,2.55221891403198,0.9720458984375,-2.34152936935425,1.72861361503601,0.919373452663422,2.36547136306763,3.58172583580017,14.30774974823,36.5498847961426,-0.541089594364166,1.55144274234772,-0.66079968214035,3.95043277740479,1.01035308837891,5.15232229232788,-0.445321530103683,5.34864664077759,13.4697790145874,1.23061966896057,1.10133278369904,0.780509769916534,7.22091245651245,12.2870435714722,16.8551807403564,-2.09253239631653,0.636857628822327,1.5179238319397
